blockNum	trialNum	condition	pWin1	pWin2	optimalResponse	preStimulusDelay	responded	response	rt	preFeedbackDelay	outcome	optimal
1	1	2	0.6	0.1	1	0.5678777902814086	1	1	1.166381900198758	0.4136301349379627	1	1
1	2	2	0.6	0.1	1	0.5836897397345336	1	2	0.5351251000538468	0.5260563343180957	2	0
1	3	2	0.6	0.1	1	0.5426608514548091	1	2	0.5407761000096798	0.5315842347826354	2	0
1	4	2	0.6	0.1	1	0.4112651255452968	1	2	0.4229014003649354	0.4674695672072428	2	0
1	5	2	0.6	0.1	1	0.4194685839335126	1	1	0.2325200000777841	0.452586893367729	1	1
1	6	2	0.6	0.1	1	0.5831682428327646	1	1	0.553299400024116	0.5637936923927842	1	1
1	7	2	0.6	0.1	1	0.5716647212048402	1	1	0.4187678000889719	0.5948703664152816	1	1
1	8	2	0.6	0.1	1	0.5592493235465174	1	1	0.2995263002812862	0.4267968308703845	1	1
1	9	2	0.6	0.1	1	0.4211245349863725	1	1	0.3739149998873472	0.5274561285474181	1	1
1	10	2	0.6	0.1	1	0.47355301876417	1	1	0.3984595001675189	0.4703365659480516	2	1
1	11	2	0.6	0.1	1	0.4535833525648441	1	2	0.2887383000925183	0.4386585570461893	2	0
1	12	2	0.6	0.1	1	0.5937843131310576	1	1	0.2895609000697732	0.5272672909673175	1	1
1	13	2	0.6	0.1	1	0.5950932394329123	1	1	0.3467003996483982	0.5277165753837998	2	1
1	14	2	0.6	0.1	1	0.4103145620007483	1	1	0.2930522998794913	0.4258784673754662	1	1
1	15	2	0.6	0.1	1	0.5791726465042107	1	1	0.5907648000866175	0.4934307117098768	2	1
1	16	2	0.6	0.1	1	0.4377891474265482	1	2	0.5693222000263631	0.5542176801580394	2	0
1	17	2	0.6	0.1	1	0.5605747250556802	1	1	0.3067809003405273	0.5041394742568621	2	1
1	18	2	0.6	0.1	1	0.5539343759662549	1	1	0.633855199906975	0.4865877799032793	1	1
1	19	2	0.6	0.1	1	0.4480933426341944	1	1	0.5314723998308182	0.410927534862487	1	1
1	20	2	0.6	0.1	1	0.4381443302032411	1	1	0.4239349002018571	0.4766359357594129	1	1
2	1	2	0.6	0.1	1	0.5302769630735713	1	2	0.6898700003512204	0.4493033427765204	2	0
2	2	2	0.6	0.1	1	0.4928080720225627	1	2	0.6460636998526752	0.481517944430142	2	0
2	3	2	0.6	0.1	1	0.522214309909847	1	1	0.2356839999556541	0.4633605535045323	1	1
2	4	2	0.6	0.1	1	0.4107840515619265	1	1	0.3925569001585245	0.5025150770083887	1	1
2	5	2	0.6	0.1	1	0.5022477909824224	1	1	0.2788346000015736	0.5922132052367983	2	1
2	6	2	0.6	0.1	1	0.5701878821425617	1	1	0.2891525998711586	0.4973078754635024	2	1
2	7	2	0.6	0.1	1	0.5093945938017432	1	1	0.2305119000375271	0.5837229590534194	1	1
2	8	2	0.6	0.1	1	0.4868029921366721	1	1	0.3097660001367331	0.5512152146705036	2	1
2	9	2	0.6	0.1	1	0.4195564560429738	1	1	0.2683939998969436	0.5966311925921577	2	1
2	10	2	0.6	0.1	1	0.5807398969697402	1	2	0.06117430003359914	0.5380109828504723	2	0
2	11	2	0.6	0.1	1	0.4420426162748158	1	2	0.351367499679327	0.5497666202684279	2	0
2	12	2	0.6	0.1	1	0.4901185426047424	1	2	0.3019150998443365	0.4940014282462714	2	0
2	13	2	0.6	0.1	1	0.4709761359747225	1	2	0.252477299887687	0.5952035428350118	2	0
2	14	2	0.6	0.1	1	0.5459161837727231	1	1	0.2568076001480222	0.4941175334422868	1	1
2	15	2	0.6	0.1	1	0.5765400359570049	1	1	0.5337668000720441	0.508919899598388	1	1
2	16	2	0.6	0.1	1	0.5794806888348579	1	1	0.7042130003683269	0.5100837533148276	1	1
2	17	2	0.6	0.1	1	0.5202299991226016	1	1	0.565784300211817	0.5283369394096177	1	1
2	18	2	0.6	0.1	1	0.5924428733222717	1	2	0.3249178002588451	0.5155721600808395	1	0
2	19	2	0.6	0.1	1	0.5111205970780313	1	1	0.340068900026381	0.480804139779324	1	1
2	20	2	0.6	0.1	1	0.5437330867919605	1	1	0.4287542998790741	0.4560138227283113	1	1
3	1	1	0.5	0.5	1	0.5860792919682738	1	2	0.8479978004470468	0.5970572659863228	2	0
3	2	1	0.5	0.5	1	0.4207455490580394	1	1	0.2325860001146793	0.5630138732330972	2	1
3	3	1	0.5	0.5	1	0.5541638509289666	1	2	0.2703013001009822	0.5338205210190933	1	0
3	4	1	0.5	0.5	1	0.569708890313849	1	2	0.2898142002522945	0.5986492967113157	2	0
3	5	1	0.5	0.5	1	0.5511545377159172	1	2	0.2564365002326667	0.4935185929528677	1	0
3	6	1	0.5	0.5	1	0.5520902020657367	1	2	0.303359099663794	0.4932956877264852	1	0
3	7	1	0.5	0.5	1	0.4294342134323962	1	2	0.3192048002965748	0.4734506825856918	2	0
3	8	1	0.5	0.5	1	0.5805509610048469	1	2	0.2377174003049731	0.5019751656789737	2	0
3	9	1	0.5	0.5	1	0.4400359906156916	1	1	0.3340469999238849	0.5277611524393653	2	1
3	10	1	0.5	0.5	1	0.5371716746533451	1	2	0.2033059000968933	0.5915913623863609	1	0
3	11	1	0.5	0.5	1	0.5567751625948527	1	2	0.5310498001053929	0.4280335539484138	1	0
3	12	1	0.5	0.5	1	0.5517205828439593	1	2	0.341975400224328	0.4147397913804514	2	0
3	13	1	0.5	0.5	1	0.4840843263306691	1	2	0.3067621998488903	0.5442236560607299	2	0
3	14	1	0.5	0.5	1	0.5058877664791751	1	2	0.3490248001180589	0.5524371269512475	1	0
3	15	1	0.5	0.5	1	0.5237870208218164	1	2	0.4019475001841784	0.590304993707915	1	0
3	16	1	0.5	0.5	1	0.5906669831611573	1	1	0.372006599791348	0.4389406186340972	1	1
3	17	1	0.5	0.5	1	0.5405320331706156	1	1	0.3292910996824503	0.4064497748094076	2	1
3	18	1	0.5	0.5	1	0.5721931409238906	1	2	0.5532410000450909	0.4402318322775752	1	0
3	19	1	0.5	0.5	1	0.4286446892109693	1	2	0.8416173001751304	0.4687982724777194	1	0
3	20	1	0.5	0.5	1	0.4694970414828127	1	1	0.3388748001307249	0.4970137567337045	1	1
4	1	1	0.5	0.5	1	0.5922712157040888	1	2	0.5940518998540938	0.5573616731990003	1	0
4	2	1	0.5	0.5	1	0.5076461604105766	1	2	0.5141942999325693	0.5108723811391305	2	0
4	3	1	0.5	0.5	1	0.5911795031009575	1	2	0.2994319000281394	0.5137744079184388	1	0
4	4	1	0.5	0.5	1	0.447422958105036	1	1	0.2761409003287554	0.4219877911255636	1	1
4	5	1	0.5	0.5	1	0.4445735090616489	1	2	0.3732835003174841	0.4129847292658849	1	0
4	6	1	0.5	0.5	1	0.576805895689582	1	1	0.3167273998260498	0.5726936696130548	2	1
4	7	1	0.5	0.5	1	0.5402762681346082	1	2	0.2589977998286486	0.576496711430194	1	0
4	8	1	0.5	0.5	1	0.4781800472173902	1	1	0.2565931002609432	0.4127650471362412	2	1
4	9	1	0.5	0.5	1	0.5790294668821209	1	1	0.3570284997113049	0.5858657398009195	1	1
4	10	1	0.5	0.5	1	0.5966298354327649	1	2	0.2309723999351263	0.5740834764596225	1	0
4	11	1	0.5	0.5	1	0.4893616487157843	1	2	0.3020735997706652	0.4914721588197276	2	0
4	12	1	0.5	0.5	1	0.5197478197584015	1	2	0.2442201999947429	0.5458647114009852	1	0
4	13	1	0.5	0.5	1	0.4799967129021305	1	1	0.3273956999182701	0.4448627976791273	2	1
4	14	1	0.5	0.5	1	0.5344135071368046	1	2	0.3632866004481912	0.4946909596538232	2	0
4	15	1	0.5	0.5	1	0.4571325165304141	1	2	0.2675683996640146	0.4972571992958717	2	0
4	16	1	0.5	0.5	1	0.4417158185129384	1	2	0.266486800275743	0.4965657198672844	1	0
4	17	1	0.5	0.5	1	0.5846186010136366	1	2	0.3299349001608789	0.4292497111736394	2	0
4	18	1	0.5	0.5	1	0.5332442836779567	1	1	0.3173658000305295	0.5283273596574932	2	1
4	19	1	0.5	0.5	1	0.5576782850872987	1	2	0.3234287998639047	0.4216977029430786	2	0
4	20	1	0.5	0.5	1	0.5794448606706001	1	2	1.319099599961191	0.4984458847013131	1	0
5	1	2	0.1	0.6	2	0.4142627863964209	1	1	0.5189416003413498	0.5430486299167215	2	0
5	2	2	0.1	0.6	2	0.4009539732533747	1	1	0.269520299974829	0.5020331337804991	2	0
5	3	2	0.1	0.6	2	0.5152804998337807	1	2	0.2039812002331018	0.5034519310526919	1	1
5	4	2	0.1	0.6	2	0.4121066708099755	1	2	0.3064164998941123	0.4509511760096631	1	1
5	5	2	0.1	0.6	2	0.4272300005290384	1	2	0.5395428999327123	0.5476578639469531	1	1
5	6	2	0.1	0.6	2	0.4946993565477557	1	1	0.2525367001071572	0.4734577174842685	2	0
5	7	2	0.1	0.6	2	0.5356550043429502	1	2	0.1842354000546038	0.4774997448395076	1	1
5	8	2	0.1	0.6	2	0.4672382193464742	1	2	0.2946337000466883	0.5783672808225753	1	1
5	9	2	0.1	0.6	2	0.5804578447722696	1	2	0.2999781998805702	0.5368019294075583	1	1
5	10	2	0.1	0.6	2	0.5697897603646096	1	2	0.282381699886173	0.5764164612714477	1	1
5	11	2	0.1	0.6	2	0.559849534139407	1	2	0.3015657002106309	0.4614493192350618	2	1
5	12	2	0.1	0.6	2	0.4238789647411585	1	2	0.3025511000305414	0.468172802818238	2	1
5	13	2	0.1	0.6	2	0.5137612452333905	1	2	0.2289728000760078	0.411840725783941	1	1
5	14	2	0.1	0.6	2	0.4574503247977645	1	2	0.237478599883616	0.5786924341240771	2	1
5	15	2	0.1	0.6	2	0.5643109689654564	1	2	0.2590229003690183	0.5928311186284494	1	1
5	16	2	0.1	0.6	2	0.4782021074497972	1	2	0.48721389984712	0.5900575556999862	1	1
5	17	2	0.1	0.6	2	0.4068938629434187	1	2	0.2884217998944223	0.4422448301725053	1	1
5	18	2	0.1	0.6	2	0.4775804096641821	1	2	0.4756991001777351	0.4468361224378368	2	1
5	19	2	0.1	0.6	2	0.4623574910042755	1	2	0.2809434998780489	0.4889492875974834	1	1
5	20	2	0.1	0.6	2	0.4979486907948066	1	2	0.4456397001631558	0.4465711809471298	1	1
6	1	1	0.5	0.5	1	0.5450722429487301	1	2	1.275440199766308	0.5802019663572918	2	0
6	2	1	0.5	0.5	1	0.5209031314265969	1	1	0.3024104000069201	0.4200180562480845	1	1
6	3	1	0.5	0.5	1	0.4929465377870023	1	2	0.3190957000479102	0.4656180547411317	2	0
6	4	1	0.5	0.5	1	0.4036368407875762	1	1	0.2652962002903223	0.4496441358208534	1	1
6	5	1	0.5	0.5	1	0.566316683120875	1	1	0.351609000004828	0.5805177982946235	1	1
6	6	1	0.5	0.5	1	0.5222840953863261	1	1	0.4576932000927627	0.4518748990646806	2	1
6	7	1	0.5	0.5	1	0.479463122623035	1	2	0.5342556000687182	0.5429714757235059	2	0
6	8	1	0.5	0.5	1	0.4241106146404583	1	1	0.3047609999775887	0.4229133037199868	2	1
6	9	1	0.5	0.5	1	0.5059216206850101	1	1	0.2191304001025856	0.4846104254983079	2	1
6	10	1	0.5	0.5	1	0.5143444594587028	1	1	0.1328870998695493	0.4442270197383177	1	1
6	11	1	0.5	0.5	1	0.563547697584464	1	1	0.5022403001785278	0.4544399336972571	2	1
6	12	1	0.5	0.5	1	0.4853163499985952	1	2	0.6283678999170661	0.4410228180040839	1	0
6	13	1	0.5	0.5	1	0.4377559553529821	1	1	0.7099223998375237	0.4077172930479238	1	1
6	14	1	0.5	0.5	1	0.4663218993411902	1	2	0.8189711002632976	0.5528089618344649	2	0
6	15	1	0.5	0.5	1	0.5341801132203023	1	2	0.3319867001846433	0.5076401255144484	2	0
6	16	1	0.5	0.5	1	0.4886597764203247	1	1	0.2994490000419319	0.4758860681003606	1	1
6	17	1	0.5	0.5	1	0.5839837852285065	1	1	0.3963347002863884	0.5816596363766511	1	1
6	18	1	0.5	0.5	1	0.4195732394005555	1	1	0.5119830998592079	0.4953425610729733	1	1
6	19	1	0.5	0.5	1	0.4031668995133174	1	2	0.6099712001159787	0.5452563871664703	2	0
6	20	1	0.5	0.5	1	0.4365976694811076	1	2	0.5759356999769807	0.5788284507990941	1	0
7	1	2	0.1	0.6	2	0.5133165653342189	1	2	0.3093600003048778	0.5764796692325665	1	1
7	2	2	0.1	0.6	2	0.5143215328529702	1	2	0.5843961997888982	0.4443096844601562	1	1
7	3	2	0.1	0.6	2	0.5371663921920649	1	1	0.6172609999775887	0.5057696285160173	2	0
7	4	2	0.1	0.6	2	0.4732241130488154	1	2	0.6056532999500632	0.4671090944940588	1	1
7	5	2	0.1	0.6	2	0.5423178246124791	1	2	1.923336500301957	0.4150879058285502	2	1
7	6	2	0.1	0.6	2	0.5644891608154162	1	1	1.430672499816865	0.4089908911604798	2	0
7	7	2	0.1	0.6	2	0.5193698182541353	1	1	0.9923001001589	0.5118739200641996	2	0
7	8	2	0.1	0.6	2	0.5670125550273619	1	2	1.750957999844104	0.4891955863438099	2	1
7	9	2	0.1	0.6	2	0.4519233286213672	1	2	1.333374199923128	0.4866798303434403	1	1
7	10	2	0.1	0.6	2	0.5946035459036831	1	1	0.6230872999876738	0.5737251534433614	2	0
7	11	2	0.1	0.6	2	0.5406850309065538	1	1	0.4443350001238286	0.4746798371940197	2	0
7	12	2	0.1	0.6	2	0.5156611407108692	1	2	0.3729877001605928	0.5701670131687273	1	1
7	13	2	0.1	0.6	2	0.5561980510679047	1	2	1.18847329961136	0.5257454250401067	2	1
7	14	2	0.1	0.6	2	0.432645082799047	1	2	1.536766599863768	0.5779065012131892	2	1
7	15	2	0.1	0.6	2	0.4715054107998902	1	2	0.9261298999190331	0.5124904933571294	2	1
7	16	2	0.1	0.6	2	0.5375444311877347	1	1	0.009729899931699038	0.4026772452722031	2	0
7	17	2	0.1	0.6	2	0.401873160246266	1	1	0.6563067999668419	0.4575558052143512	2	0
7	18	2	0.1	0.6	2	0.5389385287505166	1	1	1.599761300254613	0.4039179943300116	1	0
7	19	2	0.1	0.6	2	0.4855893100321894	1	1	0.6448062001727521	0.4205232900273768	2	0
7	20	2	0.1	0.6	2	0.5126108959877973	1	2	0.4967813999392092	0.5212003196751021	1	1
8	1	1	0.5	0.5	1	0.5813240748443511	1	2	1.019088900182396	0.5169216618504053	1	0
8	2	1	0.5	0.5	1	0.5010867072145692	1	2	0.5580609999597073	0.565485128932243	2	0
8	3	1	0.5	0.5	1	0.4721135764645328	1	1	0.6739655998535454	0.5739723632030184	2	1
8	4	1	0.5	0.5	1	0.5926295148363571	1	1	0.4224672997370362	0.5419032993981363	2	1
8	5	1	0.5	0.5	1	0.5714480133901589	1	2	0.2618128997273743	0.4006522822618463	2	0
8	6	1	0.5	0.5	1	0.5516334288143538	1	2	0.4338668999262154	0.5918944494356685	1	0
8	7	1	0.5	0.5	1	0.5226590189034931	1	2	0.572552400175482	0.5731673770142061	2	0
8	8	1	0.5	0.5	1	0.4496851890213683	1	1	0.5191214000806212	0.5045999216265612	2	1
8	9	1	0.5	0.5	1	0.5498398194061663	1	2	0.3949104999192059	0.4112728931250605	1	0
8	10	1	0.5	0.5	1	0.5623313353866863	1	2	0.3068729001097381	0.5314974398101052	2	0
8	11	1	0.5	0.5	1	0.5216408829927106	1	2	0.238971299957484	0.4837386750711655	1	0
8	12	1	0.5	0.5	1	0.5823765627095381	1	2	0.2886864999309182	0.583895804509536	2	0
8	13	1	0.5	0.5	1	0.4564968784014123	1	2	0.2789741000160575	0.4532077725408278	1	0
8	14	1	0.5	0.5	1	0.5663056661292215	1	2	0.4002695996314287	0.5679365164251899	1	0
8	15	1	0.5	0.5	1	0.5544155570305147	1	2	0.3610863001085818	0.5189803254992778	1	0
8	16	1	0.5	0.5	1	0.4517905532153238	1	1	0.8544650999829173	0.4746549298555947	1	1
8	17	1	0.5	0.5	1	0.4862194075999923	1	2	0.4669400998391211	0.436803558790511	2	0
8	18	1	0.5	0.5	1	0.4888928837981346	1	2	0.5615115002728999	0.4968070496166041	2	0
8	19	1	0.5	0.5	1	0.452963720706601	1	2	0.3797432002611458	0.4973665402232792	1	0
8	20	1	0.5	0.5	1	0.5931705753917853	1	2	0.6226042001508176	0.4096273061648854	1	0
9	1	2	0.6	0.1	1	0.4852164736189484	1	2	1.040277899708599	0.5779322377290584	2	0
9	2	2	0.6	0.1	1	0.4019379237083064	1	1	0.2091657002456486	0.4738284984598952	1	1
9	3	2	0.6	0.1	1	0.4862718638438268	1	1	0.5037541999481618	0.5837501432263559	1	1
9	4	2	0.6	0.1	1	0.4865815329335995	1	1	0.46571009978652	0.5878673743206132	2	1
9	5	2	0.6	0.1	1	0.5758929631069978	1	2	0.4934494001790881	0.4419119199327321	2	0
9	6	2	0.6	0.1	1	0.5252658182128103	1	1	0.648740999866277	0.4744610471143217	2	1
9	7	2	0.6	0.1	1	0.5540219173171375	1	1	0.7367475000210106	0.5319000838590373	1	1
9	8	2	0.6	0.1	1	0.4485953915953073	1	1	0.5783580997958779	0.5947369390223858	1	1
9	9	2	0.6	0.1	1	0.5608957840469453	1	2	0.6471162000671029	0.480874520768085	2	0
9	10	2	0.6	0.1	1	0.5676527075862541	1	2	0.3650221000425518	0.5925547523750798	2	0
9	11	2	0.6	0.1	1	0.488352108711045	1	1	0.5028276001103222	0.4106853847959264	1	1
9	12	2	0.6	0.1	1	0.4648782874890312	1	1	0.6168295997194946	0.5893863699591592	1	1
9	13	2	0.6	0.1	1	0.5128507557704759	1	1	0.564346699975431	0.5978300274590531	1	1
9	14	2	0.6	0.1	1	0.5942001821723947	1	2	0.2971486998721957	0.5390948312614384	2	0
9	15	2	0.6	0.1	1	0.5865325963992054	1	1	0.3150066002272069	0.502854776273585	1	1
9	16	2	0.6	0.1	1	0.4370587475082006	1	1	0.900959299877286	0.5178963062186319	1	1
9	17	2	0.6	0.1	1	0.5924284644517732	1	1	0.6150009003467858	0.4744141105450876	1	1
9	18	2	0.6	0.1	1	0.4935205588599685	1	1	0.6902447999455035	0.5217481219672763	1	1
9	19	2	0.6	0.1	1	0.4461580698093093	1	1	0.9212163002230227	0.4065378085064209	1	1
9	20	2	0.6	0.1	1	0.4801421969580784	1	1	0.6679409998469055	0.4180703468787157	1	1
10	1	2	0.1	0.6	2	0.5824209854814077	1	1	0.5953740999102592	0.5267584735492572	2	0
10	2	2	0.1	0.6	2	0.5323730461821683	1	2	0.766920099966228	0.5936381283395837	2	1
10	3	2	0.1	0.6	2	0.5495881794497227	1	2	0.5579377999529243	0.5067356372838803	1	1
10	4	2	0.1	0.6	2	0.5587630287515118	1	1	0.6222088998183608	0.423516895366202	2	0
10	5	2	0.1	0.6	2	0.48323960507203	1	1	0.5869132997468114	0.4231194938582114	2	0
10	6	2	0.1	0.6	2	0.4607629611330145	1	2	0.2598998001776636	0.4986170514088811	1	1
10	7	2	0.1	0.6	2	0.4708167554389285	1	2	0.2740732999518514	0.4365359648865321	1	1
10	8	2	0.1	0.6	2	0.4903916263376578	1	2	0.2637031003832817	0.4636349258040007	2	1
10	9	2	0.1	0.6	2	0.4406388071501914	1	2	0.337062300182879	0.4290721831781242	2	1
10	10	2	0.1	0.6	2	0.5748709245049787	1	2	0.3261020998470485	0.4336463265881662	2	1
10	11	2	0.1	0.6	2	0.512313557809853	1	2	0.3319768998771906	0.4610424407157754	1	1
10	12	2	0.1	0.6	2	0.5207854908743562	1	2	0.3974979002960026	0.5578497653863534	1	1
10	13	2	0.1	0.6	2	0.4607816484471114	1	2	0.3881868999451399	0.4798695578190226	2	1
10	14	2	0.1	0.6	2	0.5326077762021846	1	1	0.4389657001011074	0.5968187650942991	2	0
10	15	2	0.1	0.6	2	0.4089174693881654	1	2	0.2843455998227	0.4119832315786139	1	1
10	16	2	0.1	0.6	2	0.5150164431543669	1	2	0.3771055000834167	0.4800734089925977	1	1
10	17	2	0.1	0.6	2	0.4056985557215125	1	2	0.7221947000361979	0.506072507092205	1	1
10	18	2	0.1	0.6	2	0.5215789857739765	1	1	0.5810059001669288	0.4346487087262856	1	0
10	19	2	0.1	0.6	2	0.4095013624004327	1	2	0.5882768002338707	0.5795689100656765	1	1
10	20	2	0.1	0.6	2	0.4946412812396458	1	2	0.5521924998611212	0.5153071365086803	1	1
11	1	1	0.5	0.5	1	0.4827771504922531	1	1	0.7260769000276923	0.4195928237357189	1	1
11	2	1	0.5	0.5	1	0.4258044269464877	1	1	0.5742879998870194	0.467956478959992	1	1
11	3	1	0.5	0.5	1	0.4498089844018575	1	1	0.6279636998660862	0.4971618681344958	2	1
11	4	1	0.5	0.5	1	0.5571583222779772	1	2	0.496696200221777	0.448002523681174	1	0
11	5	1	0.5	0.5	1	0.4549312315755866	1	1	0.4472229997627437	0.5817481019642587	1	1
11	6	1	0.5	0.5	1	0.4723647211458595	1	1	0.4673687997274101	0.4806775527431006	1	1
11	7	1	0.5	0.5	1	0.5237658466998475	1	2	0.5432272995822132	0.5506269267200306	1	0
11	8	1	0.5	0.5	1	0.5968400486825296	1	2	0.4200077001005411	0.5071963307718169	2	0
11	9	1	0.5	0.5	1	0.479711577057562	1	1	0.4715877999551594	0.5319840198908997	1	1
11	10	1	0.5	0.5	1	0.5647905999993972	1	1	0.3179230997338891	0.4598720343248908	1	1
11	11	1	0.5	0.5	1	0.4729725647527757	1	1	0.3354074996896088	0.4909511290282961	1	1
11	12	1	0.5	0.5	1	0.534745515272391	1	1	0.3907055999152362	0.5687507904291845	2	1
11	13	1	0.5	0.5	1	0.4522340897724868	1	1	0.53303960012272	0.5733590083237278	2	1
11	14	1	0.5	0.5	1	0.4922267461550517	1	1	0.4869162999093533	0.4033395739894512	1	1
11	15	1	0.5	0.5	1	0.5271235650772832	1	1	0.4605398001149297	0.4796358750079871	2	1
11	16	1	0.5	0.5	1	0.516274799873372	1	1	0.5809749998152256	0.4213768297235893	2	1
11	17	1	0.5	0.5	1	0.5648690920865238	1	1	0.547575700096786	0.4720101186133527	1	1
11	18	1	0.5	0.5	1	0.4751676637099226	1	2	0.3859699000604451	0.4259448698133373	2	0
11	19	1	0.5	0.5	1	0.5688837588156872	1	1	0.370110500138253	0.5587378937344987	1	1
11	20	1	0.5	0.5	1	0.5422510655524175	1	1	0.7820250000804663	0.4502616227675734	1	1
12	1	1	0.5	0.5	1	0.5033561134069338	1	2	1.781412499956787	0.5631923113417651	1	0
12	2	1	0.5	0.5	1	0.5901149931195724	1	1	0.7174673001281917	0.4388674663331581	1	1
12	3	1	0.5	0.5	1	0.5105067276775652	1	2	0.5671685999259353	0.4147613062262261	2	0
12	4	1	0.5	0.5	1	0.4121422926472526	1	2	0.6921939998865128	0.4631550442760479	2	0
12	5	1	0.5	0.5	1	0.4375532030233985	1	1	0.4827526998706162	0.5200063566555632	2	1
12	6	1	0.5	0.5	1	0.5376392965837657	1	1	0.431190500035882	0.5388794778199939	1	1
12	7	1	0.5	0.5	1	0.4723697278767282	1	1	0.5856459001079202	0.5284262301904488	2	1
12	8	1	0.5	0.5	1	0.5673819521889315	1	1	0.3494127001613379	0.4494209100087144	1	1
12	9	1	0.5	0.5	1	0.5174274366758991	1	1	0.5162618001922965	0.5280651216799633	2	1
12	10	1	0.5	0.5	1	0.5302777207631884	1	1	0.3981412001885474	0.427130620024843	1	1
12	11	1	0.5	0.5	1	0.5644811197368034	1	2	0.2755597000941634	0.4242080938151216	1	0
12	12	1	0.5	0.5	1	0.4395358363689213	1	1	0.24339700024575	0.4019826901041085	2	1
12	13	1	0.5	0.5	1	0.4100609638918661	1	2	0.4512578998692334	0.4661324971953574	1	0
12	14	1	0.5	0.5	1	0.4880294411483135	1	1	0.2464581998065114	0.4984053933580237	1	1
12	15	1	0.5	0.5	1	0.5435034370766805	1	2	0.4102252000011504	0.5155149130767954	1	0
12	16	1	0.5	0.5	1	0.4201428562714915	1	1	0.4040136998519301	0.5325611745254604	1	1
12	17	1	0.5	0.5	1	0.5580726532488099	1	2	0.4458981999196112	0.4095288060860842	2	0
12	18	1	0.5	0.5	1	0.4402698903729365	1	1	0.3367074001580477	0.5354716686763764	2	1
12	19	1	0.5	0.5	1	0.40021157283527	1	2	0.3276567999273539	0.4506921765814757	2	0
12	20	1	0.5	0.5	1	0.4201153023450091	1	2	0.3041806998662651	0.4558598277969498	1	0
13	1	2	0.6	0.1	1	0.4495050423864477	1	2	0.6205051997676492	0.5767815902015178	2	0
13	2	2	0.6	0.1	1	0.4621051780668735	1	1	0.2412267001345754	0.5624501350872002	2	1
13	3	2	0.6	0.1	1	0.503204737934981	1	1	0.2963243001140654	0.5783759206752279	2	1
13	4	2	0.6	0.1	1	0.5535134281248956	1	2	0.4364828998222947	0.4672144248986784	1	0
13	5	2	0.6	0.1	1	0.5565973765197594	1	2	0.5751175000332296	0.443206850327761	2	0
13	6	2	0.6	0.1	1	0.4802166367293008	1	2	0.5331572000868618	0.4035781481295548	2	0
13	7	2	0.6	0.1	1	0.5052661296565119	1	2	0.3748400998301804	0.4881448311322463	2	0
13	8	2	0.6	0.1	1	0.4610651672548035	1	1	0.2303880001418293	0.5655360293335104	1	1
13	9	2	0.6	0.1	1	0.5721367544874412	1	1	0.4217277001589537	0.4566734480424666	1	1
13	10	2	0.6	0.1	1	0.4899535810100786	1	1	0.4475968996994197	0.4245694141390025	1	1
13	11	2	0.6	0.1	1	0.4271771329250598	1	1	0.4013543999753892	0.4571595987834767	1	1
13	12	2	0.6	0.1	1	0.4537225077210738	1	1	0.4781236997805536	0.5822571317890457	1	1
13	13	2	0.6	0.1	1	0.5209075066937003	1	1	0.5358800999820232	0.4500511369789607	2	1
13	14	2	0.6	0.1	1	0.5794938552118665	1	1	0.3601108002476394	0.4755758240939061	1	1
13	15	2	0.6	0.1	1	0.4184446355062261	1	1	0.3984878999181092	0.5842367870658643	2	1
13	16	2	0.6	0.1	1	0.53744384417026	1	1	0.4268789002671838	0.5522084976174181	1	1
13	17	2	0.6	0.1	1	0.4747861934596719	1	1	0.4685763996094465	0.5967813791292541	1	1
13	18	2	0.6	0.1	1	0.5049275657206354	1	1	1.186905200127512	0.5643467663541725	1	1
13	19	2	0.6	0.1	1	0.4944444350523316	1	1	0.9843550999648869	0.4704438153724766	2	1
13	20	2	0.6	0.1	1	0.5844414717721614	1	1	0.6733349002897739	0.4438748049159582	1	1
14	1	2	0.6	0.1	1	0.4305244372659157	1	1	0.9886330999433994	0.5044450380631017	1	1
14	2	2	0.6	0.1	1	0.4431650482474092	1	2	0.7291873996146023	0.5161642863272832	2	0
14	3	2	0.6	0.1	1	0.4850661078379893	1	1	0.5500974003225565	0.4532303074849657	1	1
14	4	2	0.6	0.1	1	0.5110752832498505	1	1	0.6330273998901248	0.4294853281399115	2	1
14	5	2	0.6	0.1	1	0.587132342479335	1	2	0.688924000132829	0.4861182844841437	2	0
14	6	2	0.6	0.1	1	0.4591918871983247	1	2	0.5965025001205504	0.4743885670566882	2	0
14	7	2	0.6	0.1	1	0.5701885346662515	1	1	0.5876319999806583	0.5994985312476535	2	1
14	8	2	0.6	0.1	1	0.5206412615392431	1	1	0.4485303000546992	0.4163495024802312	2	1
14	9	2	0.6	0.1	1	0.5577960036563507	1	1	0.494115499779582	0.5617922854407226	2	1
14	10	2	0.6	0.1	1	0.4936797483735391	1	2	0.4527449002489448	0.4211773624452799	2	0
14	11	2	0.6	0.1	1	0.5534911632870885	1	2	0.3237798996269703	0.4802221698196092	2	0
14	12	2	0.6	0.1	1	0.526388845395546	1	2	0.9715289999730885	0.4989039902024198	2	0
14	13	2	0.6	0.1	1	0.4978237577430616	1	1	0.8255409002304077	0.5442950186258974	2	1
14	14	2	0.6	0.1	1	0.5519138193675293	1	1	0.350420200265944	0.5289953825331835	1	1
14	15	2	0.6	0.1	1	0.5959400405102382	1	1	0.4890238000079989	0.4674553349475823	1	1
14	16	2	0.6	0.1	1	0.5792742755750687	1	1	0.9924002001062036	0.5333669382568481	1	1
14	17	2	0.6	0.1	1	0.404059634145947	1	2	0.5319095002487302	0.5011482510555587	2	0
14	18	2	0.6	0.1	1	0.5577933180867265	1	1	0.4673389000818133	0.4261547380910158	1	1
14	19	2	0.6	0.1	1	0.4514872149040015	1	1	0.6540027000010014	0.473843165231597	1	1
14	20	2	0.6	0.1	1	0.4246795399895804	1	1	0.438693099655211	0.4667132552943262	2	1
15	1	1	0.5	0.5	1	0.5907703352429936	1	1	1.129384800326079	0.4134132674488746	2	1
15	2	1	0.5	0.5	1	0.5410700592489222	1	1	0.6183207998983562	0.4309286110267326	1	1
15	3	1	0.5	0.5	1	0.49168788018137	1	1	0.6152397999539971	0.5606155016602462	2	1
15	4	1	0.5	0.5	1	0.4682191747833662	1	2	0.3387179998680949	0.417930509249124	1	0
15	5	1	0.5	0.5	1	0.5576241712071252	1	2	0.4890652000904083	0.5992550746840346	2	0
15	6	1	0.5	0.5	1	0.5824335263003629	1	2	0.5057808998972178	0.4738065349705343	1	0
15	7	1	0.5	0.5	1	0.5904851816168211	1	2	0.4389442997053266	0.5263016226574173	1	0
15	8	1	0.5	0.5	1	0.5471958135515499	1	1	0.539983999915421	0.5891998295630911	1	1
15	9	1	0.5	0.5	1	0.5226194455775639	1	2	0.4651607996784151	0.4178226907769275	1	0
15	10	1	0.5	0.5	1	0.5143854990545765	1	2	0.6548709999769926	0.434377516088604	2	0
15	11	1	0.5	0.5	1	0.401759532268009	1	2	0.5849806996993721	0.5159450955201015	1	0
15	12	1	0.5	0.5	1	0.565155809932344	1	1	0.4274935000576079	0.4302197425731793	2	1
15	13	1	0.5	0.5	1	0.4474351100001782	1	2	0.4156009000726044	0.5891006614332828	2	0
15	14	1	0.5	0.5	1	0.4693820994564459	1	2	0.9001752999611199	0.4961648217591004	1	0
15	15	1	0.5	0.5	1	0.4191018474716077	1	2	0.953248200006783	0.4933305901572188	2	0
15	16	1	0.5	0.5	1	0.4027467268462326	1	2	0.7978456001728773	0.5679257254341906	1	0
15	17	1	0.5	0.5	1	0.5333884645457883	1	2	1.151434500236064	0.541820046103236	1	0
15	18	1	0.5	0.5	1	0.528694470749717	1	2	1.002683099824935	0.5457335437871018	2	0
15	19	1	0.5	0.5	1	0.5117412844154673	1	2	0.5583909000270069	0.5162056549182903	2	0
15	20	1	0.5	0.5	1	0.5038301126735065	1	2	0.5272622997872531	0.4464140659784042	1	0
16	1	1	0.5	0.5	1	0.505800492852821	1	1	0.581961499992758	0.47120538731161	1	1
16	2	1	0.5	0.5	1	0.4931230375859441	1	1	0.4927575001493096	0.5041131045526414	2	1
16	3	1	0.5	0.5	1	0.42074241946935	1	1	0.4532176996581256	0.5952174421310013	2	1
16	4	1	0.5	0.5	1	0.5645896687453803	1	2	0.5023274999111891	0.5964546549809715	2	0
16	5	1	0.5	0.5	1	0.4278371828240447	1	2	0.5465212999843061	0.4306271165851794	2	0
16	6	1	0.5	0.5	1	0.561402360590377	1	2	0.4784618997946382	0.5067604818605403	1	0
16	7	1	0.5	0.5	1	0.5761591808991875	1	2	0.6819746000692248	0.5240676797909208	2	0
16	8	1	0.5	0.5	1	0.5324418983335186	1	2	0.5603885999880731	0.4648353614879143	1	0
16	9	1	0.5	0.5	1	0.514527428006689	1	2	1.020301800221205	0.5386382967854642	1	0
16	10	1	0.5	0.5	1	0.4076221826453685	1	1	0.7440082998946309	0.5362967683990892	1	1
16	11	1	0.5	0.5	1	0.4638096332000755	1	2	0.7024600002914667	0.4986777482227087	1	0
16	12	1	0.5	0.5	1	0.4198221993030999	1	1	0.8156139999628067	0.474167283307498	2	1
16	13	1	0.5	0.5	1	0.5643192593242385	1	1	0.6409338000230491	0.5411431536732962	2	1
16	14	1	0.5	0.5	1	0.4345642903239836	1	2	0.3115240996703506	0.5113498358895048	2	0
16	15	1	0.5	0.5	1	0.5270365979888439	1	2	1.06546980002895	0.4319291859564983	2	0
16	16	1	0.5	0.5	1	0.4272306820355023	1	1	0.8635816997848451	0.5216256031104146	1	1
16	17	1	0.5	0.5	1	0.5593921740830721	1	1	0.5858248998411	0.4685003271492083	2	1
16	18	1	0.5	0.5	1	0.4139703165178196	1	1	0.6938791000284255	0.5715166632150339	2	1
16	19	1	0.5	0.5	1	0.5371873811764099	1	2	0.3298101997934282	0.5745752929312465	2	0
16	20	1	0.5	0.5	1	0.410008078046487	1	1	0.4568964000791311	0.5303675304140034	2	1
17	1	2	0.1	0.6	2	0.4192999151765209	1	2	0.7725855000317097	0.5224483077322237	1	1
17	2	2	0.1	0.6	2	0.5135309312571684	1	2	0.439136500004679	0.5773313700507673	1	1
17	3	2	0.1	0.6	2	0.5344494107609983	1	2	0.4573246999643743	0.4720712847175757	2	1
17	4	2	0.1	0.6	2	0.431967864152841	1	2	0.3312033996917307	0.4137358990362985	1	1
17	5	2	0.1	0.6	2	0.5648037617481989	1	2	0.4486195002682507	0.4990952361661016	1	1
17	6	2	0.1	0.6	2	0.4431039890385946	1	2	0.397599299903959	0.5661008290492039	1	1
17	7	2	0.1	0.6	2	0.5971574387008239	1	2	0.4419995001517236	0.4094798973054658	1	1
17	8	2	0.1	0.6	2	0.4506602467609349	1	1	0.4133983999490738	0.4175300717252233	2	0
17	9	2	0.1	0.6	2	0.4444330865543914	1	2	0.2318047001026571	0.5156407466186544	2	1
17	10	2	0.1	0.6	2	0.5209571066438237	1	2	0.253752900287509	0.5143464375818372	1	1
17	11	2	0.1	0.6	2	0.5100681877411297	1	2	0.307513500098139	0.5262812930189195	1	1
17	12	2	0.1	0.6	2	0.4342079451835018	1	2	0.5411056997254491	0.5449420951582291	2	1
17	13	2	0.1	0.6	2	0.5676652406200536	1	2	0.4268284002318978	0.5814447105603199	2	1
17	14	2	0.1	0.6	2	0.4084171143171629	1	2	0.5544291003607213	0.5534540843818523	1	1
17	15	2	0.1	0.6	2	0.4621413970601546	1	2	0.5203533000312746	0.4686614359869183	1	1
17	16	2	0.1	0.6	2	0.4395211438422508	1	2	0.6021970002911985	0.5172428932869491	1	1
17	17	2	0.1	0.6	2	0.4222221646965789	1	2	0.6664559999480844	0.5513663511286115	2	1
17	18	2	0.1	0.6	2	0.5837724269854101	1	2	0.5554967997595668	0.5853824154840471	1	1
17	19	2	0.1	0.6	2	0.4739248107785146	1	2	0.5939086000435054	0.4098996601818337	2	1
17	20	2	0.1	0.6	2	0.5703151399379167	1	2	0.5965169002301991	0.4655291241592871	2	1
18	1	1	0.5	0.5	1	0.5893596034482006	1	1	0.9404641999863088	0.5383258670547011	2	1
18	2	1	0.5	0.5	1	0.4956738441541503	1	2	0.6191294002346694	0.4266035839900263	1	0
18	3	1	0.5	0.5	1	0.4237796252720694	1	2	0.6002966999076307	0.5292336507996478	1	0
18	4	1	0.5	0.5	1	0.4387483435074369	1	2	0.3795468001626432	0.5946192926270396	1	0
18	5	1	0.5	0.5	1	0.4303201657538868	1	2	0.3304654997773468	0.4429412310087623	2	0
18	6	1	0.5	0.5	1	0.5089658239094046	1	2	0.3664540997706354	0.4855836716943009	2	0
18	7	1	0.5	0.5	1	0.5888155050098319	1	2	0.2337870001792908	0.4985268940867835	1	0
18	8	1	0.5	0.5	1	0.4291329144370604	1	2	0.4145026998594403	0.5309885941434422	2	0
18	9	1	0.5	0.5	1	0.4684197260586249	1	1	0.3528335001319647	0.4051651705188064	2	1
18	10	1	0.5	0.5	1	0.447830831132692	1	1	0.4363508997485042	0.4523202794304685	2	1
18	11	1	0.5	0.5	1	0.5022213819303034	1	1	0.4032366997562349	0.4384257613240848	2	1
18	12	1	0.5	0.5	1	0.5989821818325934	1	2	0.2503667999990284	0.536283095739968	1	0
18	13	1	0.5	0.5	1	0.4595044506862594	1	2	0.2912542000412941	0.4927813227628428	2	0
18	14	1	0.5	0.5	1	0.5092194848819425	1	2	0.2758096000179648	0.4443431050329193	2	0
18	15	1	0.5	0.5	1	0.5956698498230504	1	2	0.2622305997647345	0.4874691459212794	1	0
18	16	1	0.5	0.5	1	0.5368600228814537	1	2	0.6065211999230087	0.4803674084954398	2	0
18	17	1	0.5	0.5	1	0.4099128554887135	1	1	0.5220932001248002	0.4470534239072003	2	1
18	18	1	0.5	0.5	1	0.5979275459045228	1	2	1.02644080016762	0.4836607880965479	1	0
18	19	1	0.5	0.5	1	0.4320714886809464	1	2	0.8738740999251604	0.4695201877770753	2	0
18	20	1	0.5	0.5	1	0.4727980467813875	1	1	0.6664591003209352	0.4226134687277296	2	1
19	1	2	0.6	0.1	1	0.4046584523202413	1	2	0.6823943997733295	0.5626805087289239	2	0
19	2	2	0.6	0.1	1	0.4778578178533164	1	2	0.2670844998210669	0.5958240386625759	2	0
19	3	2	0.6	0.1	1	0.4049207721525339	1	1	0.225290599744767	0.5789067651841339	1	1
19	4	2	0.6	0.1	1	0.5011684024991392	1	1	0.2219616998918355	0.5236381879546713	1	1
19	5	2	0.6	0.1	1	0.4855991729649417	1	1	0.3532158001326025	0.5157783934233878	1	1
19	6	2	0.6	0.1	1	0.5623836307087561	1	1	0.2549092997796834	0.5162836288434574	1	1
19	7	2	0.6	0.1	1	0.4987448737260439	1	1	0.2482373001985252	0.5261346179569257	1	1
19	8	2	0.6	0.1	1	0.5614347342346954	1	1	0.4078418002463877	0.5070712238706414	2	1
19	9	2	0.6	0.1	1	0.5150620238544815	1	1	0.603569199796766	0.4566957499602926	2	1
19	10	2	0.6	0.1	1	0.5395995754872898	1	1	0.4247308000922203	0.5397951321298808	1	1
19	11	2	0.6	0.1	1	0.5551336302097594	1	1	0.4030619002878666	0.4315331602551034	1	1
19	12	2	0.6	0.1	1	0.5122281804032549	1	1	0.435251499991864	0.5411853817738478	1	1
19	13	2	0.6	0.1	1	0.5330531660207473	1	1	0.5092116999439895	0.5666719668288855	1	1
19	14	2	0.6	0.1	1	0.4759863677974298	1	1	0.4644119003787637	0.5072877052228101	2	1
19	15	2	0.6	0.1	1	0.4455874734339809	1	1	0.484748899936676	0.5830839791208405	1	1
19	16	2	0.6	0.1	1	0.4100855327988662	1	1	0.7482009995728731	0.5710377464191744	1	1
19	17	2	0.6	0.1	1	0.4852632617605956	1	1	0.410784600302577	0.4708125425640059	2	1
19	18	2	0.6	0.1	1	0.4778412995962272	1	1	0.4297493998892605	0.4010362946044911	2	1
19	19	2	0.6	0.1	1	0.5847798393188222	1	1	0.3029812998138368	0.5654202174573058	2	1
19	20	2	0.6	0.1	1	0.5728392626006867	1	1	0.4710462000221014	0.5561214926781888	1	1
20	1	1	0.5	0.5	1	0.4222503801391445	1	2	0.6171682002022862	0.5607929527775881	2	0
20	2	1	0.5	0.5	1	0.4496442640510995	1	1	0.5156084997579455	0.5863006865745868	2	1
20	3	1	0.5	0.5	1	0.5415948365613286	1	1	0.4347967999055982	0.4142121660887109	1	1
20	4	1	0.5	0.5	1	0.4892082205008144	1	2	0.5613000001758337	0.4690577390351586	1	0
20	5	1	0.5	0.5	1	0.5421733853664601	1	2	0.5565472999587655	0.4477896341541863	2	0
20	6	1	0.5	0.5	1	0.5887086305677214	1	2	0.3252551998011768	0.4265021068236526	1	0
20	7	1	0.5	0.5	1	0.5467530415683503	1	1	0.5111000002361834	0.4267902601434015	2	1
20	8	1	0.5	0.5	1	0.5081130690408572	1	1	0.4267708999104798	0.5438462390324623	1	1
20	9	1	0.5	0.5	1	0.5280701493197975	1	2	0.4471205999143422	0.4449260209226818	2	0
20	10	1	0.5	0.5	1	0.5533461961530178	1	2	0.32833920000121	0.447488156874402	1	0
20	11	1	0.5	0.5	1	0.4037402395839795	1	2	0.4400362996384501	0.4759652288786325	2	0
20	12	1	0.5	0.5	1	0.5685277414084322	1	1	0.2469671000726521	0.4839717065862528	2	1
20	13	1	0.5	0.5	1	0.5134043641969999	1	2	0.3116036998108029	0.4968749285402045	2	0
20	14	1	0.5	0.5	1	0.4599238322665378	1	2	0.2987803001888096	0.5710174813944555	1	0
20	15	1	0.5	0.5	1	0.5899790669226428	1	1	0.2552654999308288	0.5042972275321331	2	1
20	16	1	0.5	0.5	1	0.5853210203754657	1	1	0.4662442998960614	0.5661422259512253	1	1
20	17	1	0.5	0.5	1	0.4116924682008042	1	1	0.3362961998209357	0.5231791627447091	2	1
20	18	1	0.5	0.5	1	0.417576696325168	1	2	0.3711665999144316	0.4727655099416013	2	0
20	19	1	0.5	0.5	1	0.4506739961463736	1	2	0.4121341002173722	0.4621224732176944	2	0
20	20	1	0.5	0.5	1	0.4350875455826287	1	2	0.477768300101161	0.5229554527794843	2	0
