blockNum	trialNum	condition	pWin1	pWin2	optimalResponse	preStimulusDelay	responded	response	rt	preFeedbackDelay	outcome	optimal
1	1	2	0.6	0.1	1	0.4239958857708783	1	1	1.456460600020364	0.491391258588021	1	1
1	2	2	0.6	0.1	1	0.4409287412394738	1	1	1.11957860016264	0.5972032224847426	1	1
1	3	2	0.6	0.1	1	0.5402761913493247	1	1	0.4075416999403387	0.584485613918419	2	1
1	4	2	0.6	0.1	1	0.4362325432482382	1	2	0.6651238999329507	0.4169213856227411	2	0
1	5	2	0.6	0.1	1	0.5533254615120055	1	1	0.4589704999234527	0.5478538760579725	1	1
1	6	2	0.6	0.1	1	0.4029944275020357	1	1	0.4899967999663204	0.5257385485831713	1	1
1	7	2	0.6	0.1	1	0.5384925707364714	1	2	0.4936661999672651	0.5148320214467432	2	0
1	8	2	0.6	0.1	1	0.4401810179700383	1	1	0.3828926000278443	0.5472348129612519	1	1
1	9	2	0.6	0.1	1	0.4186882384505625	1	2	0.8735181000083685	0.4218838233159372	2	0
1	10	2	0.6	0.1	1	0.4439285323394001	1	1	0.3740271001588553	0.4829537983847444	1	1
1	11	2	0.6	0.1	1	0.4817968456801554	1	1	0.6062868998851627	0.5971872509878168	2	1
1	12	2	0.6	0.1	1	0.5606056841518788	1	1	0.7659237000625581	0.5446046753045416	2	1
1	13	2	0.6	0.1	1	0.4220407608090784	1	2	0.3181692000944167	0.5918306330128438	2	0
1	14	2	0.6	0.1	1	0.4889640833149445	1	1	0.3032865000423044	0.4351389972028227	2	1
1	15	2	0.6	0.1	1	0.5599965327646352	1	2	0.3058469998650253	0.568919357128949	2	0
1	16	2	0.6	0.1	1	0.5185750089967494	1	1	0.5533602000214159	0.4897198313687603	1	1
1	17	2	0.6	0.1	1	0.5487540461981744	1	1	0.3016400001943111	0.5764895410931701	1	1
1	18	2	0.6	0.1	1	0.4229686270492549	1	1	0.2463112999685109	0.5920623244151588	2	1
1	19	2	0.6	0.1	1	0.4495376070120503	1	1	0.05999150010757148	0.5697376494160611	2	1
1	20	2	0.6	0.1	1	0.4295342818097	1	2	0.06867630011402071	0.460631858008636	2	0
2	1	1	0.5	0.5	1	0.5099619899690568	0	n/a	n/a	n/a	n/a	n/a
2	2	1	0.5	0.5	1	0.4949497378769885	1	1	0.6462695000227541	0.4429824964630162	2	1
2	3	1	0.5	0.5	1	0.4817266948972958	1	2	0.2289463998749852	0.5974811757849312	2	0
2	4	1	0.5	0.5	1	0.5617670764336311	1	1	0.2960127999540418	0.4348797813418956	1	1
2	5	1	0.5	0.5	1	0.5997324047241349	1	1	0.2791196999605745	0.4657837070215243	2	1
2	6	1	0.5	0.5	1	0.5162865220689028	1	1	0.1439698000904173	0.5038123002547298	2	1
2	7	1	0.5	0.5	1	0.4429796146540506	1	1	0.2455772999674082	0.5117862087770638	2	1
2	8	1	0.5	0.5	1	0.5625297815267374	1	1	0.06812849990092218	0.4490913058961427	1	1
2	9	1	0.5	0.5	1	0.5657261776550671	1	1	0.1719781998544931	0.571777466210497	1	1
2	10	1	0.5	0.5	1	0.598904738978413	1	1	0.0007470999844372272	0.5561984606025424	2	1
2	11	1	0.5	0.5	1	0.5615461008661231	1	2	0.0004030000418424606	0.4247079779027591	2	0
2	12	1	0.5	0.5	1	0.4976360386995955	1	2	0.000408099964261055	0.4712616652637125	1	0
2	13	1	0.5	0.5	1	0.4212551613855434	1	2	0.0003978000022470951	0.4219897895820389	2	0
2	14	1	0.5	0.5	1	0.5905115499042282	1	2	0.1113744999747723	0.4122652734783852	1	0
2	15	1	0.5	0.5	1	0.5943590682816646	1	2	0.09104410000145435	0.4083385859294972	1	0
2	16	1	0.5	0.5	1	0.5207520199782563	1	2	0.000398899894207716	0.5627251926836569	2	0
2	17	1	0.5	0.5	1	0.5720312474290512	1	1	0.0004034999292343855	0.4312101871312858	1	1
2	18	1	0.5	0.5	1	0.584459622786228	1	1	0.4545801999047399	0.4591259656749976	2	1
2	19	1	0.5	0.5	1	0.4286147217113978	1	1	0.1059024999849498	0.4105261238249973	1	1
2	20	1	0.5	0.5	1	0.4847794610327206	1	1	0.228616600157693	0.497529672884943	2	1
3	1	2	0.1	0.6	2	0.4135725995831684	1	1	0.620864300057292	0.50490869281113	2	0
3	2	2	0.1	0.6	2	0.5512571737321619	1	2	0.07845439994707704	0.5064204835231002	2	1
3	3	2	0.1	0.6	2	0.5784903968253632	1	1	0.2903280002065003	0.4765580566946163	2	0
3	4	2	0.1	0.6	2	0.5223552786590473	1	2	0.5515046999789774	0.4824440984819069	1	1
3	5	2	0.1	0.6	2	0.4684765376931936	1	1	0.5520383000839502	0.5620938962282964	2	0
3	6	2	0.1	0.6	2	0.5802861517346748	1	2	0.7543167998082936	0.4674455214816336	2	1
3	7	2	0.1	0.6	2	0.4845764648881301	1	1	0.6221610999200493	0.4756537154880238	2	0
3	8	2	0.1	0.6	2	0.4986405708860137	1	1	0.1714670001529157	0.507521005419427	2	0
3	9	2	0.1	0.6	2	0.4681898614800415	1	1	0.3579543000087142	0.4036954854961292	2	0
3	10	2	0.1	0.6	2	0.4005481751652393	1	2	0.0262748000677675	0.5328965250691722	1	1
3	11	2	0.1	0.6	2	0.514995112366733	1	2	0.5894100000150502	0.5340449559650086	1	1
3	12	2	0.1	0.6	2	0.4126303642533626	1	2	0.4776934999972582	0.4175237603033777	2	1
3	13	2	0.1	0.6	2	0.4275152049243959	1	2	0.0003985001239925623	0.5491394706934956	1	1
3	14	2	0.1	0.6	2	0.4155473389894089	1	2	0.2350258000660688	0.5235609014236986	1	1
3	15	2	0.1	0.6	2	0.4754279182734674	1	2	0.3484909001272172	0.4667423837579529	1	1
3	16	2	0.1	0.6	2	0.4393435061043921	1	2	0.357508199987933	0.4727723749122413	2	1
3	17	2	0.1	0.6	2	0.4789717149445691	1	2	0.5315493000671268	0.5214469679414118	1	1
3	18	2	0.1	0.6	2	0.4798614583218964	1	1	0.2599994998890907	0.4819567482310208	2	0
3	19	2	0.1	0.6	2	0.5061222397475673	1	2	0.3175157001242042	0.5005274492619033	2	1
3	20	2	0.1	0.6	2	0.5965054957592371	1	1	0.3813851000741124	0.5818038906639169	1	0
4	1	1	0.5	0.5	1	0.4389387103369023	1	2	0.3588187999557704	0.5555173356834637	1	0
4	2	1	0.5	0.5	1	0.5666070993200696	1	2	0.292531100101769	0.4511049990644695	1	0
4	3	1	0.5	0.5	1	0.4040375606593782	1	2	0.2568595998454839	0.444651724350316	2	0
4	4	1	0.5	0.5	1	0.5089138536505209	1	2	0.1232198998332024	0.5574046593633337	2	0
4	5	1	0.5	0.5	1	0.4603321274547957	1	1	0.0003978998865932226	0.5686443740237492	2	1
4	6	1	0.5	0.5	1	0.5792120004700194	1	2	0.0004090000875294209	0.404795718594661	1	0
4	7	1	0.5	0.5	1	0.5904724979066547	1	1	0.5929594999179244	0.5697821829542421	2	1
4	8	1	0.5	0.5	1	0.5956127404572373	1	2	0.2567507999483496	0.4834158261276292	2	0
4	9	1	0.5	0.5	1	0.4432932922652737	1	2	1.252595799975097	0.4144556574147222	1	0
4	10	1	0.5	0.5	1	0.4341907908749685	1	2	0.0004308000206947327	0.5828105589946925	2	0
4	11	1	0.5	0.5	1	0.590751054848925	1	2	0.04172719991765916	0.5992828463111237	2	0
4	12	1	0.5	0.5	1	0.5998342178117814	1	2	0.3975569999311119	0.4141337166056288	2	0
4	13	1	0.5	0.5	1	0.5679265610934494	1	1	0.2248645001091063	0.5284759848421674	2	1
4	14	1	0.5	0.5	1	0.4726695423794845	1	2	0.0004002999048680067	0.5649405980571706	1	0
4	15	1	0.5	0.5	1	0.4438825906454859	1	1	0.6470196000300348	0.5259797374961819	2	1
4	16	1	0.5	0.5	1	0.5536934468998814	1	2	0.1693645999766886	0.4620824481374528	1	0
4	17	1	0.5	0.5	1	0.5344322876430162	1	2	0.6130830000620335	0.4739809220762917	2	0
4	18	1	0.5	0.5	1	0.5707517081852869	1	2	0.08687160001136363	0.4977408740450192	2	0
4	19	1	0.5	0.5	1	0.4179086390908235	1	2	0.140536000020802	0.4151266265493666	1	0
4	20	1	0.5	0.5	1	0.4411958577321504	1	2	0.01341589982621372	0.480584650910452	1	0
5	1	2	0.6	0.1	1	0.4281703188336282	1	2	0.98220290010795	0.5677114210063243	2	0
5	2	2	0.6	0.1	1	0.5583385261967468	1	1	0.3080202001146972	0.5488495172954211	1	1
5	3	2	0.6	0.1	1	0.5066479022007021	1	1	0.7829144999850541	0.5646842288085023	1	1
5	4	2	0.6	0.1	1	0.467224535604105	1	1	0.3561772999819368	0.5256853401272744	1	1
5	5	2	0.6	0.1	1	0.5800959145219977	1	2	0.5404902000445873	0.44051987800476	2	0
5	6	2	0.6	0.1	1	0.4101818785139625	1	2	0.000430600019171834	0.4679925221813254	2	0
5	7	2	0.6	0.1	1	0.5302852940925832	1	1	0.2392210001125932	0.4587009312818349	1	1
5	8	2	0.6	0.1	1	0.4377496100957745	1	1	0.1437882001046091	0.5042962644508017	1	1
5	9	2	0.6	0.1	1	0.5641166555462023	1	1	0.2925909000914544	0.410936681845368	1	1
5	10	2	0.6	0.1	1	0.5909489269628151	1	1	0.2250447999686003	0.5087412612638267	1	1
5	11	2	0.6	0.1	1	0.4298057092624161	1	1	0.2840887999627739	0.4306776962319943	2	1
5	12	2	0.6	0.1	1	0.4491438176051607	1	1	0.2397519000805914	0.4558198401844856	2	1
5	13	2	0.6	0.1	1	0.5155423477220726	1	1	0.06593879987485707	0.4432980815337019	2	1
5	14	2	0.6	0.1	1	0.5361115680023101	1	1	0.1383779000025243	0.5209109502524715	2	1
5	15	2	0.6	0.1	1	0.488281876905557	1	1	0.0003983001224696636	0.5494650172192075	1	1
5	16	2	0.6	0.1	1	0.5898309302795465	1	1	0.2169161001220345	0.5516236278216836	1	1
5	17	2	0.6	0.1	1	0.5660853954679222	1	1	0.1923154001124203	0.4473102519394476	1	1
5	18	2	0.6	0.1	1	0.5549318807574501	1	2	0.0004026000387966633	0.5414373506841507	2	0
5	19	2	0.6	0.1	1	0.462373845775032	1	2	0.1927207999397069	0.5279852196434409	2	0
5	20	2	0.6	0.1	1	0.4723302595025617	1	1	0.0004039001651108265	0.4556488662704289	1	1
6	1	1	0.5	0.5	1	0.5804745323690794	1	2	0.6237021998967975	0.5788946619463642	2	0
6	2	1	0.5	0.5	1	0.425467818078177	1	1	0.1759464000351727	0.4738400788310934	1	1
6	3	1	0.5	0.5	1	0.451267804259998	1	1	1.271505899960175	0.4705136907731511	2	1
6	4	1	0.5	0.5	1	0.569320843237264	1	1	0.2341722999699414	0.4440060878072135	1	1
6	5	1	0.5	0.5	1	0.5427114970050853	1	1	0.2508983002044261	0.4477631272033249	1	1
6	6	1	0.5	0.5	1	0.4092558158422341	1	1	0.2996698999777436	0.45603840798166	2	1
6	7	1	0.5	0.5	1	0.5843089719523104	1	2	0.07776999985799193	0.5944184239459782	2	0
6	8	1	0.5	0.5	1	0.5172900419521531	1	2	0.08454399998299778	0.554355352467387	2	0
6	9	1	0.5	0.5	1	0.5532868842645602	1	2	0.8508752000052482	0.5155286972850839	2	0
6	10	1	0.5	0.5	1	0.5578681323506581	1	2	0.3817636000458151	0.569909521990398	1	0
6	11	1	0.5	0.5	1	0.571049409550305	1	2	0.2694308001082391	0.5124485012686693	2	0
6	12	1	0.5	0.5	1	0.597627992832192	1	2	0.2691693999804556	0.4420278882239658	2	0
6	13	1	0.5	0.5	1	0.5381966753436185	1	1	0.3721847999840975	0.4133977180785111	2	1
6	14	1	0.5	0.5	1	0.5377903332164151	1	1	0.6195729000028223	0.4224505753155222	1	1
6	15	1	0.5	0.5	1	0.4836034118933918	1	1	0.1426901000086218	0.5194761030709137	1	1
6	16	1	0.5	0.5	1	0.5839198063136612	1	2	0.01039539999328554	0.4021116497425995	1	0
6	17	1	0.5	0.5	1	0.4641445491571135	1	1	0.2182648000307381	0.5575030607867582	2	1
6	18	1	0.5	0.5	1	0.583401062168345	1	2	0.0004033998120576143	0.5262960722998129	1	0
6	19	1	0.5	0.5	1	0.5280815766116458	1	1	0.1680598999373615	0.5691455056630733	2	1
6	20	1	0.5	0.5	1	0.4213559402225194	1	1	0.0004558998625725508	0.4192342180138622	2	1
7	1	2	0.6	0.1	1	0.5796986713902808	1	2	0.2885477000381798	0.4507668648250361	2	0
7	2	2	0.6	0.1	1	0.5396586826739027	1	1	0.08787750010378659	0.5371179734473563	2	1
7	3	2	0.6	0.1	1	0.5922140810091462	1	1	0.0004424999933689833	0.5851143728456092	2	1
7	4	2	0.6	0.1	1	0.5318818036933466	1	1	0.0004062000662088394	0.5200171017403502	2	1
7	5	2	0.6	0.1	1	0.5567581418468297	1	1	0.3281311001628637	0.5748822879534781	2	1
7	6	2	0.6	0.1	1	0.5374741729126865	1	1	0.0003994000144302845	0.4602679400920854	1	1
7	7	2	0.6	0.1	1	0.5915831358081516	1	1	0.0004710000939667225	0.4710123966854616	1	1
7	8	2	0.6	0.1	1	0.5728154973871519	1	1	0.1055909998249263	0.4684813883655386	2	1
7	9	2	0.6	0.1	1	0.5266971634723118	1	2	0.21231530001387	0.4623829752346259	2	0
7	10	2	0.6	0.1	1	0.4062420480020777	1	2	0.3216490000486374	0.5555585771043094	2	0
7	11	2	0.6	0.1	1	0.4064168506469679	1	1	0.410973499994725	0.5943997083889681	1	1
7	12	2	0.6	0.1	1	0.5960462482434248	1	1	0.1408363000955433	0.5286384740116008	1	1
7	13	2	0.6	0.1	1	0.5294897316525949	1	1	0.4048349000513554	0.5053100118268692	1	1
7	14	2	0.6	0.1	1	0.4052660465653873	1	1	0.0003990998957306147	0.5869483218914006	1	1
7	15	2	0.6	0.1	1	0.4297961159883934	1	1	0.7053340999409556	0.4741862467359664	2	1
7	16	2	0.6	0.1	1	0.488072547001332	1	1	0.001483700005337596	0.5288641990567798	1	1
7	17	2	0.6	0.1	1	0.4385141722665031	1	1	0.04853199981153011	0.4339910389665051	1	1
7	18	2	0.6	0.1	1	0.5811142513565057	1	2	0.1303582000546157	0.4303004491657441	2	0
7	19	2	0.6	0.1	1	0.5404783792155836	1	1	0.001463299850001931	0.5739312394288824	1	1
7	20	2	0.6	0.1	1	0.4543074770426109	1	1	0.3151461000088602	0.4757482154091444	1	1
8	1	1	0.5	0.5	1	0.5721357446874972	1	2	0.6336079000029713	0.5986459800279281	2	0
8	2	1	0.5	0.5	1	0.4027085947275082	1	1	0.451248399913311	0.558264511397475	2	1
8	3	1	0.5	0.5	1	0.4663126877502359	1	1	0.099012800026685	0.4365498339794411	1	1
8	4	1	0.5	0.5	1	0.5519880773425224	1	1	0.2710740999318659	0.4861354386201643	2	1
8	5	1	0.5	0.5	1	0.4600119693716463	1	1	0.00541110010817647	0.5573001727078608	2	1
8	6	1	0.5	0.5	1	0.5406481111825692	1	1	0.3230347000062466	0.5066383322877508	1	1
8	7	1	0.5	0.5	1	0.5857216392182423	1	1	0.362710100132972	0.5284018845816463	2	1
8	8	1	0.5	0.5	1	0.4916913120772001	1	1	0.3804840999655426	0.4335818257399435	1	1
8	9	1	0.5	0.5	1	0.4453895100514273	1	1	0.3172996998764575	0.434834766932337	1	1
8	10	1	0.5	0.5	1	0.4481802390220246	1	1	0.0004059001803398132	0.5134004986859699	2	1
8	11	1	0.5	0.5	1	0.5962817946742368	1	1	0.0004068999551236629	0.5146922889423725	2	1
8	12	1	0.5	0.5	1	0.4402891998228048	1	1	0.04595860000699759	0.4448256897991532	2	1
8	13	1	0.5	0.5	1	0.5145593054265956	1	1	0.01801689993590117	0.5326744531686176	1	1
8	14	1	0.5	0.5	1	0.4073712895821866	1	2	0.0004008999094367027	0.4815170032000067	2	0
8	15	1	0.5	0.5	1	0.4863219687752561	1	2	0.4074542999733239	0.4565571101974905	2	0
8	16	1	0.5	0.5	1	0.5168477649751881	1	1	0.2904473999515176	0.5484641002262284	1	1
8	17	1	0.5	0.5	1	0.4202797742376355	1	1	0.3925485999789089	0.589110458699181	2	1
8	18	1	0.5	0.5	1	0.4657856672507951	1	2	0.07654449995607138	0.4233117731413621	2	0
8	19	1	0.5	0.5	1	0.5756151372963538	1	2	0.553415099857375	0.5686161784780438	1	0
8	20	1	0.5	0.5	1	0.5395432608057175	1	2	0.0004026000387966633	0.4646593998072545	1	0
9	1	2	0.1	0.6	2	0.5590999245602571	1	1	0.6275581000372767	0.5302666420504437	2	0
9	2	2	0.1	0.6	2	0.4678468128805394	1	1	0.0004076999612152576	0.4252523207788439	2	0
9	3	2	0.1	0.6	2	0.5986232709094345	1	1	0.6887817999813706	0.4129397076306597	2	0
9	4	2	0.1	0.6	2	0.5116029826240422	1	2	0.04801359982229769	0.4581263497442374	1	1
9	5	2	0.1	0.6	2	0.4110024013811611	1	2	0.0004209000617265701	0.4517697979550152	1	1
9	6	2	0.1	0.6	2	0.50880233918219	1	2	0.3075504000298679	0.454711799014954	2	1
9	7	2	0.1	0.6	2	0.5845405661131835	1	1	0.4952014000155032	0.5090890310202274	2	0
9	8	2	0.1	0.6	2	0.4565390154945358	1	2	0.5564447999931872	0.4983453523374718	1	1
9	9	2	0.1	0.6	2	0.4850609651928482	1	2	0.5839577000588179	0.552310853782043	1	1
9	10	2	0.1	0.6	2	0.4695519161478054	1	2	0.0004043998196721077	0.4728002242668254	1	1
9	11	2	0.1	0.6	2	0.5884882363317856	1	2	0.4371875999495387	0.5944098709129148	2	1
9	12	2	0.1	0.6	2	0.4243928123912352	1	2	0.2882995000109076	0.4146932161636344	1	1
9	13	2	0.1	0.6	2	0.4493816302849812	1	2	0.0004106999840587378	0.5995587761901214	1	1
9	14	2	0.1	0.6	2	0.5221441161160538	1	2	0.03582200012169778	0.4959066919157005	2	1
9	15	2	0.1	0.6	2	0.4058168453762159	1	2	0.292529699858278	0.4092335756510148	1	1
9	16	2	0.1	0.6	2	0.5473610135668597	1	2	0.200161499902606	0.5658115141162721	2	1
9	17	2	0.1	0.6	2	0.4137876129768298	1	2	0.000436499947682023	0.5368534476369855	1	1
9	18	2	0.1	0.6	2	0.5887464886319766	1	2	0.0004282998852431774	0.4965206079079465	1	1
9	19	2	0.1	0.6	2	0.5338036593694987	1	2	0.0004063001833856106	0.4207012071725147	2	1
9	20	2	0.1	0.6	2	0.4986994955570378	1	2	0.0004357998259365559	0.4880407357686959	2	1
10	1	2	0.1	0.6	2	0.562085270269873	1	2	0.9374768999405205	0.5509357506260308	1	1
10	2	2	0.1	0.6	2	0.5366740912991201	1	2	0.480324300006032	0.5475808203560704	2	1
10	3	2	0.1	0.6	2	0.5594487279627847	1	2	0.582591500133276	0.5385762322575637	1	1
10	4	2	0.1	0.6	2	0.5613302695173155	1	2	0.5883148999419063	0.526422649939995	1	1
10	5	2	0.1	0.6	2	0.5173678644721704	1	2	0.259343400131911	0.5069575067222348	1	1
10	6	2	0.1	0.6	2	0.4414148173549703	1	2	0.09810509998351336	0.478452502638804	1	1
10	7	2	0.1	0.6	2	0.4723717776802897	1	1	0.0003980000037699938	0.5813424291016429	2	0
10	8	2	0.1	0.6	2	0.5485874616014388	1	2	0.02511730021797121	0.5085026457799028	1	1
10	9	2	0.1	0.6	2	0.402933080381994	1	2	0.000436499947682023	0.5830066342740783	1	1
10	10	2	0.1	0.6	2	0.4978702869241527	1	2	0.1950713000260293	0.4175411270444198	2	1
10	11	2	0.1	0.6	2	0.519611290543316	1	2	0.1418644001241773	0.4567198512024706	1	1
10	12	2	0.1	0.6	2	0.5487577796751957	1	2	0.1180475000292063	0.5620133010317732	1	1
10	13	2	0.1	0.6	2	0.5505740435106369	1	2	0.3638210000935942	0.4254465948161456	1	1
10	14	2	0.1	0.6	2	0.4062080613413764	1	2	0.2168249001260847	0.4441303265157068	1	1
10	15	2	0.1	0.6	2	0.487790304968534	1	2	0.2189155002124608	0.4333228219987344	1	1
10	16	2	0.1	0.6	2	0.4926869375969249	1	2	0.3195527999196202	0.4446743529178936	1	1
10	17	2	0.1	0.6	2	0.5434793555827551	1	2	0.05026339995674789	0.4484358257463436	1	1
10	18	2	0.1	0.6	2	0.4689839098549251	1	2	0.2576902001164854	0.5755926897761634	2	1
10	19	2	0.1	0.6	2	0.444326021969394	1	2	0.0004006999079138041	0.4441633311179096	1	1
10	20	2	0.1	0.6	2	0.4952051520960669	1	2	0.1913856000173837	0.5150494985834273	2	1
11	1	1	0.5	0.5	1	0.5170405173017067	0	n/a	n/a	n/a	n/a	n/a
11	2	1	0.5	0.5	1	0.4166402929486979	1	2	0.2313389000482857	0.4956920606121524	2	0
11	3	1	0.5	0.5	1	0.4271081260238238	1	1	0.0004008999094367027	0.547189080110835	1	1
11	4	1	0.5	0.5	1	0.4924023701742736	1	1	0.2007935999426991	0.4849367154968033	2	1
11	5	1	0.5	0.5	1	0.4406252383761282	1	1	0.224469699896872	0.535679909003149	1	1
11	6	1	0.5	0.5	1	0.528450795777158	1	1	0.0004361001774668694	0.5365920255031366	2	1
11	7	1	0.5	0.5	1	0.4678292777307806	1	2	0.1925711000803858	0.5233120064709634	2	0
11	8	1	0.5	0.5	1	0.5263412842955073	1	1	0.1496743001043797	0.4436027830873907	1	1
11	9	1	0.5	0.5	1	0.4209445026562432	1	1	0.0004002999048680067	0.4760370111099398	2	1
11	10	1	0.5	0.5	1	0.5613664103801015	1	1	0.8181102001108229	0.5912257629682387	1	1
11	11	1	0.5	0.5	1	0.583361626875294	1	2	0.1991953998804092	0.4435152479117163	1	0
11	12	1	0.5	0.5	1	0.4235280284960174	1	1	0.3027699999511242	0.5394321062930945	2	1
11	13	1	0.5	0.5	1	0.5579392511789502	1	2	0.0003984000068157911	0.418827870636946	1	0
11	14	1	0.5	0.5	1	0.5598436287908684	1	1	0.1995666997972876	0.432844488647029	1	1
11	15	1	0.5	0.5	1	0.5565819649465227	1	2	0.01415989990346134	0.4542453529007267	2	0
11	16	1	0.5	0.5	1	0.472302836588393	1	1	0.05911020003259182	0.4436745345679093	1	1
11	17	1	0.5	0.5	1	0.4995280437405004	1	2	0.0004052999429404736	0.4169443324216486	2	0
11	18	1	0.5	0.5	1	0.463148913610344	1	1	0.1197730998974293	0.4763552636995174	2	1
11	19	1	0.5	0.5	1	0.4929192386481571	1	2	0.2177933999337256	0.4750286518266914	2	0
11	20	1	0.5	0.5	1	0.4196847886214892	1	1	0.0004066000692546368	0.5856545911239815	1	1
12	1	1	0.5	0.5	1	0.5856590832543417	1	2	0.0004025001544505358	0.4778542787023211	1	0
12	2	1	0.5	0.5	1	0.5716062145178276	1	1	0.0004044000525027514	0.4726462708674785	1	1
12	3	1	0.5	0.5	1	0.4543621616026077	1	1	0.0406033000908792	0.5771344893061128	1	1
12	4	1	0.5	0.5	1	0.5732294248090597	1	1	0.3063930999487638	0.5791826329690981	2	1
12	5	1	0.5	0.5	1	0.4855438592286562	1	1	0.07356149982661009	0.4953085932687937	1	1
12	6	1	0.5	0.5	1	0.5997967562176774	1	1	0.354229399934411	0.4437888681778122	1	1
12	7	1	0.5	0.5	1	0.4867425163361326	1	1	0.0004009997937828302	0.4556721542387805	1	1
12	8	1	0.5	0.5	1	0.4230360648093278	1	1	0.2286427998915315	0.4778674845123177	2	1
12	9	1	0.5	0.5	1	0.4155078376021144	1	1	0.2245354000478983	0.5642415712046525	1	1
12	10	1	0.5	0.5	1	0.4033408856640709	1	1	0.08121609990485013	0.4492649522457336	1	1
12	11	1	0.5	0.5	1	0.4920006633183931	1	1	0.0004539999645203352	0.5469262893661599	1	1
12	12	1	0.5	0.5	1	0.4658290950415436	1	1	0.0361011999193579	0.5198761495281349	2	1
12	13	1	0.5	0.5	1	0.5028559457267797	1	1	0.3734983999747783	0.4523595991033543	1	1
12	14	1	0.5	0.5	1	0.5693585388053826	1	1	0.000403400044888258	0.5747647585361173	2	1
12	15	1	0.5	0.5	1	0.4633504235095234	1	1	0.06690760003402829	0.5701076686163435	1	1
12	16	1	0.5	0.5	1	0.4035595873908512	1	1	0.4502926000859588	0.5424380562283425	2	1
12	17	1	0.5	0.5	1	0.4219528549405129	1	1	1.080488700186834	0.5949816855504442	1	1
12	18	1	0.5	0.5	1	0.4796913631012311	1	1	0.4110375000163913	0.4593990448813907	1	1
12	19	1	0.5	0.5	1	0.528355501240817	1	1	0.0004070000723004341	0.4557089458159198	1	1
12	20	1	0.5	0.5	1	0.5999836874693018	1	1	0.0004085998516529799	0.5432687476769584	1	1
13	1	2	0.6	0.1	1	0.5368147261798761	1	1	0.5523577001877129	0.4154722566596437	1	1
13	2	2	0.6	0.1	1	0.5393478829465157	1	1	0.2115387001540512	0.4353310881094874	1	1
13	3	2	0.6	0.1	1	0.5245899174863468	1	1	0.1650525000877678	0.4816692352249041	1	1
13	4	2	0.6	0.1	1	0.4353125492044714	1	1	0.2098292000591755	0.4795991690553881	1	1
13	5	2	0.6	0.1	1	0.5855503974145657	1	1	0.2391532999463379	0.4725441696791375	1	1
13	6	2	0.6	0.1	1	0.408490196333669	1	1	0.2320347998756915	0.5337683695462752	2	1
13	7	2	0.6	0.1	1	0.4329127436613305	1	1	0.1423158000689	0.4815704904192599	2	1
13	8	2	0.6	0.1	1	0.4983865905366637	1	1	0.0004072999581694603	0.4236680447756175	1	1
13	9	2	0.6	0.1	1	0.4642795982398517	1	1	0.1687777999322861	0.5040977265391475	1	1
13	10	2	0.6	0.1	1	0.5468531325642996	1	1	0.2533300998620689	0.4673095445446231	2	1
13	11	2	0.6	0.1	1	0.5685925560409294	1	1	0.1955128000117838	0.4076517190415047	1	1
13	12	2	0.6	0.1	1	0.4016978647127758	1	1	0.0004087002016603947	0.5600874556750586	1	1
13	13	2	0.6	0.1	1	0.4274584971484836	1	1	0.3174043998587877	0.5640071902970591	2	1
13	14	2	0.6	0.1	1	0.4581692767718287	1	1	0.3646428000647575	0.4072181209150603	1	1
13	15	2	0.6	0.1	1	0.5513517708151536	1	1	0.0004092000890523195	0.5111970323973478	1	1
13	16	2	0.6	0.1	1	0.4199906943133441	1	1	0.004132299916818738	0.5477186818177093	2	1
13	17	2	0.6	0.1	1	0.441859723829122	1	1	0.050558399874717	0.5185969776103714	2	1
13	18	2	0.6	0.1	1	0.515751930884967	1	1	0.1374790999107063	0.5923793053419283	1	1
13	19	2	0.6	0.1	1	0.4780179334324738	1	1	0.0004201000556349754	0.4545369007300641	2	1
13	20	2	0.6	0.1	1	0.4468654308148033	1	1	0.1571403001435101	0.5631342002578987	1	1
14	1	2	0.6	0.1	1	0.5058467239887928	1	1	1.808883299818262	0.4009657340055531	1	1
14	2	2	0.6	0.1	1	0.4205590649568546	1	1	0.5658682000357658	0.5460859579631243	1	1
14	3	2	0.6	0.1	1	0.5299452761504895	1	1	0.2559752000961453	0.4075041289618431	1	1
14	4	2	0.6	0.1	1	0.4079490773686488	1	1	0.0004033998120576143	0.4062352028915418	2	1
14	5	2	0.6	0.1	1	0.4968155029190614	1	1	0.3381483999546617	0.4031184153467899	1	1
14	6	2	0.6	0.1	1	0.4029288170426255	1	1	0.2976337999571115	0.5879981285702172	2	1
14	7	2	0.6	0.1	1	0.5186527068333349	1	1	0.3107278998941183	0.5718874884272671	2	1
14	8	2	0.6	0.1	1	0.4903533350014957	1	1	0.3191885000560433	0.4002619855816313	1	1
14	9	2	0.6	0.1	1	0.5135683027849071	1	1	0.2891553998924792	0.4085854090843403	2	1
14	10	2	0.6	0.1	1	0.5795128659309275	1	1	0.0004084999673068523	0.450138330282387	1	1
14	11	2	0.6	0.1	1	0.4290349498464204	1	1	0.2611933001317084	0.4869153901242691	1	1
14	12	2	0.6	0.1	1	0.4831021805202815	1	1	0.0004068999551236629	0.4371331084594092	1	1
14	13	2	0.6	0.1	1	0.5467474528561014	1	1	0.0004475000314414501	0.5112587516067953	1	1
14	14	2	0.6	0.1	1	0.471434126616266	1	1	0.1324855999555439	0.4156333290498574	1	1
14	15	2	0.6	0.1	1	0.4502837974994152	1	1	0.5140737998299301	0.4695576252561316	1	1
14	16	2	0.6	0.1	1	0.493054918275482	1	1	0.001446300186216831	0.447076525247999	1	1
14	17	2	0.6	0.1	1	0.420073841632617	1	1	0.5018905000761151	0.4633480223807359	1	1
14	18	2	0.6	0.1	1	0.5013466949309027	1	1	0.164290799992159	0.5378918852620624	1	1
14	19	2	0.6	0.1	1	0.5985446100145871	1	1	0.000407499959692359	0.5583193771205875	2	1
14	20	2	0.6	0.1	1	0.452008758986824	1	1	0.000440599862486124	0.441456939335895	2	1
15	1	1	0.5	0.5	1	0.4751815337928739	1	1	0.7918471000157297	0.5943156794612904	1	1
15	2	1	0.5	0.5	1	0.4372030648576811	1	1	0.18563749990426	0.5996149280674342	1	1
15	3	1	0.5	0.5	1	0.4056706391478471	1	1	0.2221344001591206	0.4561552341667913	2	1
15	4	1	0.5	0.5	1	0.5248076046045962	1	1	0.2149845999665558	0.5144829409168475	1	1
15	5	1	0.5	0.5	1	0.472946469700525	1	1	0.08305999985896051	0.4027380755483706	1	1
15	6	1	0.5	0.5	1	0.4205414421826038	1	1	0.0003983001224696636	0.5361648856687689	1	1
15	7	1	0.5	0.5	1	0.5872295280229598	1	1	0.2341745998710394	0.4084855763630898	2	1
15	8	1	0.5	0.5	1	0.4633132691291019	1	1	0.0004088999703526497	0.4529252502043032	1	1
15	9	1	0.5	0.5	1	0.5028149737885182	1	1	0.4581645999569446	0.5394408292659345	2	1
15	10	1	0.5	0.5	1	0.4795752839829713	1	1	0.3497079000808299	0.5054924672064965	1	1
15	11	1	0.5	0.5	1	0.5424609283361281	1	1	0.7699657999910414	0.4696612048951178	2	1
15	12	1	0.5	0.5	1	0.5678459408197121	1	1	0.3105756000149995	0.5321670526954956	1	1
15	13	1	0.5	0.5	1	0.4019176250942804	1	1	0.1670120998751372	0.4947611311444292	1	1
15	14	1	0.5	0.5	1	0.4452384144187628	1	1	0.3093703999184072	0.5198315290738241	2	1
15	15	1	0.5	0.5	1	0.4749765889994946	1	1	0.195021899882704	0.5912521590384588	1	1
15	16	1	0.5	0.5	1	0.4209870695781677	1	1	0.0004133000038564205	0.4790740948522487	1	1
15	17	1	0.5	0.5	1	0.5298642484621937	1	1	0.8859802999068052	0.4131230281074459	2	1
15	18	1	0.5	0.5	1	0.4429573810890853	1	1	0.2473639999516308	0.5478798490862604	1	1
15	19	1	0.5	0.5	1	0.4952553818546127	1	1	0.3394995999988168	0.5182624080774071	1	1
15	20	1	0.5	0.5	1	0.5640056307460855	1	1	0.1619901999365538	0.5171431305356649	2	1
16	1	1	0.5	0.5	1	0.5435964861228463	1	2	0.2302816000301391	0.425999487152276	2	0
16	2	1	0.5	0.5	1	0.4654765871598476	1	2	0.0004050999414175749	0.4147751749912897	1	0
16	3	1	0.5	0.5	1	0.4957735854960632	1	2	0.0004065001849085093	0.5527524432848164	1	0
16	4	1	0.5	0.5	1	0.5866859439592815	1	2	0.000427700113505125	0.5797651560426993	1	0
16	5	1	0.5	0.5	1	0.4811321024294452	1	2	0.2581233000382781	0.5124878123602516	1	0
16	6	1	0.5	0.5	1	0.502287113168978	1	2	0.0004023001529276371	0.4862259319691467	2	0
16	7	1	0.5	0.5	1	0.5617091745585003	1	2	0.0004116999916732311	0.548205829841611	1	0
16	8	1	0.5	0.5	1	0.586177114216743	1	2	0.3415186000056565	0.5013734941739645	2	0
16	9	1	0.5	0.5	1	0.5444492697566886	1	1	0.1878058998845518	0.4420556764255417	2	1
16	10	1	0.5	0.5	1	0.5910555486712123	1	2	0.3752313998993486	0.4523459300176091	1	0
16	11	1	0.5	0.5	1	0.5782499225643977	1	2	0.0004068000707775354	0.4414123060032897	2	0
16	12	1	0.5	0.5	1	0.5175614390892876	1	2	0.08535399986431003	0.4038218651525286	1	0
16	13	1	0.5	0.5	1	0.4758943040813221	1	2	0.2252406999468803	0.4659399200794141	1	0
16	14	1	0.5	0.5	1	0.4374200950228848	1	2	0.2678032000549138	0.4800986366376082	1	0
16	15	1	0.5	0.5	1	0.4452074607928532	1	2	0.02167879999615252	0.4431028546279311	1	0
16	16	1	0.5	0.5	1	0.4036314608953184	1	2	0.3960900001693517	0.5706428403058967	2	0
16	17	1	0.5	0.5	1	0.556529390335321	1	2	0.3339001999702305	0.5823911697349161	1	0
16	18	1	0.5	0.5	1	0.4835982910893359	1	2	0.001452299999073148	0.4167386960903577	1	0
16	19	1	0.5	0.5	1	0.4656244993971294	1	2	0.0004082000814378262	0.5545064344823724	1	0
16	20	1	0.5	0.5	1	0.5718839740614567	1	2	0.3567960001528263	0.5779044306640814	1	0
17	1	2	0.1	0.6	2	0.4986549676079514	1	1	1.698236499913037	0.5978205925453353	2	0
17	2	2	0.1	0.6	2	0.4993757105571826	1	1	0.2606854999903589	0.4751937255564809	2	0
17	3	2	0.1	0.6	2	0.4989021823294771	1	2	0.0004344000481069088	0.5760601602655144	1	1
17	4	2	0.1	0.6	2	0.4321225040068838	1	2	0.0004081001970916986	0.5017994889120515	1	1
17	5	2	0.1	0.6	2	0.5721561002944013	1	2	0.3362613001372665	0.4475635305342889	1	1
17	6	2	0.1	0.6	2	0.5678336374693822	1	2	0.192668000003323	0.5227261977798967	1	1
17	7	2	0.1	0.6	2	0.4457568907949288	1	2	0.1644880999810994	0.4716937551535746	1	1
17	8	2	0.1	0.6	2	0.5283708823017638	1	2	0.2024983998853713	0.4087546624056873	2	1
17	9	2	0.1	0.6	2	0.4507115488474884	1	2	0.07610729988664389	0.5257795244420568	1	1
17	10	2	0.1	0.6	2	0.5144499380690561	1	2	0.04635260021314025	0.5939046381327742	2	1
17	11	2	0.1	0.6	2	0.4161461013449493	1	1	0.5882013998925686	0.4465416145091868	2	0
17	12	2	0.1	0.6	2	0.4035364928725419	1	2	0.02548330021090806	0.5467661840686118	1	1
17	13	2	0.1	0.6	2	0.5385909929963957	1	2	0.8066159000154585	0.510453364327963	1	1
17	14	2	0.1	0.6	2	0.5158446354923859	1	2	0.009610299952328205	0.4036345182949702	2	1
17	15	2	0.1	0.6	2	0.407206794307143	1	2	0.1919932998716831	0.4142975991026417	1	1
17	16	2	0.1	0.6	2	0.5882475444132981	1	2	0.0004024000372737646	0.4711656939045441	1	1
17	17	2	0.1	0.6	2	0.540753889364683	1	2	0.3034524000249803	0.4460736918648188	1	1
17	18	2	0.1	0.6	2	0.5468775907952762	1	2	0.4577550000976771	0.5316273394258342	1	1
17	19	2	0.1	0.6	2	0.5342573507475878	1	2	0.0004083001986145973	0.4761094186489675	1	1
17	20	2	0.1	0.6	2	0.5408365131109246	1	2	0.3873038000892848	0.4920324199059966	2	1
18	1	2	0.6	0.1	1	0.5256411240048966	0	n/a	n/a	n/a	n/a	n/a
18	2	2	0.6	0.1	1	0.4379376119043478	1	2	0.4680768998805434	0.4155084069998257	2	0
18	3	2	0.6	0.1	1	0.5102347111030642	1	1	0.09631119994446635	0.4074233489717365	2	1
18	4	2	0.6	0.1	1	0.449872024840472	1	1	0.08748509990982711	0.5761691229877073	2	1
18	5	2	0.6	0.1	1	0.4900303908147169	1	2	0.1202692999504507	0.5224022817212596	2	0
18	6	2	0.6	0.1	1	0.4991240595339981	1	2	0.240262399893254	0.4112367997569285	2	0
18	7	2	0.6	0.1	1	0.4332108556311289	1	2	0.2706653000786901	0.5031388183757896	2	0
18	8	2	0.6	0.1	1	0.4122539757258388	1	1	0.07845150004141033	0.4757861861119356	1	1
18	9	2	0.6	0.1	1	0.5205425233071159	1	1	0.0004020000342279673	0.5547341797935604	1	1
18	10	2	0.6	0.1	1	0.4232100318842459	1	1	0.02714919997379184	0.4480243644785821	1	1
18	11	2	0.6	0.1	1	0.4842326295375412	1	1	0.02151300013065338	0.4254396835208716	2	1
18	12	2	0.6	0.1	1	0.4608628074655218	1	1	0.1085844999179244	0.4499836322332575	2	1
18	13	2	0.6	0.1	1	0.4965133750171379	1	1	0.1006084999535233	0.4600636464842997	2	1
18	14	2	0.6	0.1	1	0.5477216411216631	1	2	0.0342930001206696	0.44619719705095	2	0
18	15	2	0.6	0.1	1	0.4306363369138185	1	1	0.1389975000638515	0.5703234974179247	1	1
18	16	2	0.6	0.1	1	0.4798377568699466	1	1	0.0005145000759512186	0.4558140539659542	2	1
18	17	2	0.6	0.1	1	0.4959784812541715	1	2	0.4253262002021074	0.4936658130764707	2	0
18	18	2	0.6	0.1	1	0.4309395650504678	1	2	0.3144314999226481	0.5530353800537406	2	0
18	19	2	0.6	0.1	1	0.5046338711739993	1	1	0.5373597999569029	0.5870621947861695	2	1
18	20	2	0.6	0.1	1	0.5765349005283384	1	1	0.04822030011564493	0.4057172438420611	2	1
19	1	1	0.5	0.5	1	0.5825258584250942	1	2	0.5022842001635581	0.5613313259138406	1	0
19	2	1	0.5	0.5	1	0.5284578696198838	1	2	0.1790190001484007	0.4937285570290428	1	0
19	3	1	0.5	0.5	1	0.5882124347958373	1	2	0.1456827998626977	0.5950153904750909	1	0
19	4	1	0.5	0.5	1	0.5402663998172081	1	2	0.06465119984932244	0.5124223081907783	1	0
19	5	1	0.5	0.5	1	0.5557122503089402	1	2	0.1896818000823259	0.5219356563866142	2	0
19	6	1	0.5	0.5	1	0.4315646585982315	1	2	0.0004088999703526497	0.4391824547176894	2	0
19	7	1	0.5	0.5	1	0.5394860667687665	1	2	0.0004007997922599316	0.4937999405765987	1	0
19	8	1	0.5	0.5	1	0.5870601109552228	1	2	0.04245460010133684	0.4424401115185315	1	0
19	9	1	0.5	0.5	1	0.486964875090166	1	2	0.1515032001771033	0.4812140407666447	1	0
19	10	1	0.5	0.5	1	0.56397519543154	1	2	0.00043819984421134	0.4281375734827225	2	0
19	11	1	0.5	0.5	1	0.4463489486358661	1	2	0.0004054000601172447	0.4390876208486384	2	0
19	12	1	0.5	0.5	1	0.5568751921682903	1	2	0.2100821000058204	0.4089263450625759	1	0
19	13	1	0.5	0.5	1	0.4980252299415133	1	2	0.06441340013407171	0.5456484065472784	2	0
19	14	1	0.5	0.5	1	0.4609972067214288	1	2	0.03799620014615357	0.4887517457546938	1	0
19	15	1	0.5	0.5	1	0.5564357571239659	1	2	0.08121709991246462	0.5306892664864084	1	0
19	16	1	0.5	0.5	1	0.4808184787756032	1	2	0.2091031998861581	0.5175735409044449	1	0
19	17	1	0.5	0.5	1	0.5330310555348469	1	2	0.0004071001894772053	0.4725082159131014	1	0
19	18	1	0.5	0.5	1	0.482924236829762	1	2	0.0004349998198449612	0.5277752002711069	2	0
19	19	1	0.5	0.5	1	0.4063275162014401	1	2	0.2149065001867712	0.4835097985850219	2	0
19	20	1	0.5	0.5	1	0.4409509500362098	1	2	0.1317004999145865	0.5201054880572419	1	0
20	1	1	0.5	0.5	1	0.4699272949099169	1	2	0.8661048000212759	0.587583056046274	2	0
20	2	1	0.5	0.5	1	0.5381022565582516	1	2	0.5321246001403779	0.557782360654891	2	0
20	3	1	0.5	0.5	1	0.5046611842246794	1	1	0.4296041000634432	0.5581354684496116	2	1
20	4	1	0.5	0.5	1	0.5980428812597937	1	1	0.1022303998470306	0.5204965364774969	2	1
20	5	1	0.5	0.5	1	0.550340788163567	1	2	0.09956820006482303	0.4660208629711928	1	0
20	6	1	0.5	0.5	1	0.4399893346812646	1	1	0.0004006999079138041	0.5445904369729743	2	1
20	7	1	0.5	0.5	1	0.4765998609481342	1	1	0.2573423001449555	0.4962256721121091	1	1
20	8	1	0.5	0.5	1	0.5007538483469783	1	1	0.0875685999635607	0.5706901218198195	2	1
20	9	1	0.5	0.5	1	0.4130876757786514	1	1	0.0887593999505043	0.4505040890221326	2	1
20	10	1	0.5	0.5	1	0.4257350793960485	1	1	0.0004020000342279673	0.4454985753673145	2	1
20	11	1	0.5	0.5	1	0.4799108499333152	1	2	0.0004068999551236629	0.5700662384075004	1	0
20	12	1	0.5	0.5	1	0.4636777193490434	1	2	0.03620109986513853	0.4572817184288508	2	0
20	13	1	0.5	0.5	1	0.5393608752891481	1	1	0.0004308000206947327	0.5408002584063962	1	1
20	14	1	0.5	0.5	1	0.4272076912440758	1	2	0.09345999988727272	0.5388179335058548	2	0
20	15	1	0.5	0.5	1	0.4623050911096632	1	1	0.01914589991793036	0.5192091516372236	2	1
20	16	1	0.5	0.5	1	0.5784776027058226	1	1	0.02538300002925098	0.5369188891838854	2	1
20	17	1	0.5	0.5	1	0.4165807734775258	1	2	0.0004078000783920288	0.4934442149128712	2	0
20	18	1	0.5	0.5	1	0.4299716335003384	1	1	0.0004363998305052519	0.4766935193494033	1	1
20	19	1	0.5	0.5	1	0.519015881671554	1	2	0.0004912998992949724	0.4339939298107578	2	0
20	20	1	0.5	0.5	1	0.4108644393735197	1	1	0.0004308999050408602	0.4188798951643033	2	1
