blockNum	trialNum	condition	pWin1	pWin2	optimalResponse	preStimulusDelay	responded	response	rt	preFeedbackDelay	outcome	optimal
1	1	2	0.6	0.1	1	0.4386166871989192	0	n/a	n/a	n/a	n/a	n/a
1	2	2	0.6	0.1	1	0.5945962134794028	1	1	1.237560500041582	0.5730944142067542	1	1
1	3	2	0.6	0.1	1	0.4592347914507204	1	1	1.118836699984968	0.5516043220764094	1	1
1	4	2	0.6	0.1	1	0.4201740271340637	1	1	0.8512275000102818	0.5974720217923316	1	1
1	5	2	0.6	0.1	1	0.409258732824716	1	1	1.060513100004755	0.4845061827084058	1	1
1	6	2	0.6	0.1	1	0.5804016912340266	1	2	1.297359500080347	0.5577478015893503	1	0
1	7	2	0.6	0.1	1	0.4122581042395249	1	1	0.8613911001011729	0.584560747456098	1	1
1	8	2	0.6	0.1	1	0.414777912362446	1	2	0.8786656999727711	0.5055309353116093	2	0
1	9	2	0.6	0.1	1	0.4966594092916756	1	2	0.693358700023964	0.4566449307276055	2	0
1	10	2	0.6	0.1	1	0.4328727556709184	1	1	1.364266199991107	0.4562108252960826	1	1
1	11	2	0.6	0.1	1	0.5676840657150091	1	1	0.2194201999809593	0.437921340984008	1	1
1	12	2	0.6	0.1	1	0.4353177230004933	1	1	0.7812149999663234	0.5581527074974273	1	1
1	13	2	0.6	0.1	1	0.51203562619983	1	1	0.888870200025849	0.469974950392906	2	1
1	14	2	0.6	0.1	1	0.4133225275100761	1	1	0.3817143000196666	0.5918814337723838	1	1
1	15	2	0.6	0.1	1	0.4514997288157783	1	1	0.4491219000192359	0.4673230132968506	2	1
1	16	2	0.6	0.1	1	0.439283889351494	1	2	0.4562720999820158	0.582674268849955	2	0
1	17	2	0.6	0.1	1	0.5068265211182319	1	1	0.450539999990724	0.4969557207665706	2	1
1	18	2	0.6	0.1	1	0.5876478793430574	1	1	1.089840199914761	0.5405663615357341	1	1
1	19	2	0.6	0.1	1	0.5549353211523032	1	1	0.9368057999527082	0.5963438850595368	2	1
1	20	2	0.6	0.1	1	0.5439276578374588	1	2	0.4123809000011533	0.5730289523478175	2	0
2	1	1	0.5	0.5	1	0.4497114420676545	1	2	0.5450898000271991	0.5299108274864039	2	0
2	2	1	0.5	0.5	1	0.4240574900852733	1	1	0.2818190999096259	0.576544811623241	1	1
2	3	1	0.5	0.5	1	0.4960137305910092	1	1	0.8654804999241605	0.5799580916786962	2	1
2	4	1	0.5	0.5	1	0.4044846016926325	1	2	1.999049699981697	0.5086172808609105	1	0
2	5	1	0.5	0.5	1	0.5291172542697267	1	2	1.86935649998486	0.5381260588773447	1	0
2	6	1	0.5	0.5	1	0.4611067925895615	1	2	1.754675599979237	0.4854718037334838	1	0
2	7	1	0.5	0.5	1	0.5264093264510308	1	2	1.55812199995853	0.4591479562983791	1	0
2	8	1	0.5	0.5	1	0.506354780035503	1	2	1.382765499991365	0.5192214057992786	2	0
2	9	1	0.5	0.5	1	0.5621544640927432	1	1	1.246867199894041	0.5515033979244414	2	1
2	10	1	0.5	0.5	1	0.4388468837239312	1	1	0.6069247000850737	0.4493776007608762	1	1
2	11	1	0.5	0.5	1	0.5644053723435501	1	1	0.7175506999483332	0.5087670195055146	2	1
2	12	1	0.5	0.5	1	0.4219569696974775	1	2	0.4071097000269219	0.4213373903925983	1	0
2	13	1	0.5	0.5	1	0.4609059811129751	1	2	0.8022214999655262	0.4652000360830981	2	0
2	14	1	0.5	0.5	1	0.5305806561409853	1	2	1.392923700041138	0.5676150666514382	1	0
2	15	1	0.5	0.5	1	0.5732356671768211	1	2	1.878082000068389	0.5275615460684481	1	0
2	16	1	0.5	0.5	1	0.4976330761237279	0	n/a	n/a	n/a	n/a	n/a
2	17	1	0.5	0.5	1	0.4973745866292273	1	1	1.327392200008035	0.4082615698366319	2	1
2	18	1	0.5	0.5	1	0.4579546965425415	1	1	0.1394005999900401	0.4168972161097929	2	1
2	19	1	0.5	0.5	1	0.5059579377181442	1	2	0.1872159000486135	0.5223387292418156	2	0
2	20	1	0.5	0.5	1	0.4683753802501592	1	2	0.4062472999794409	0.4697338255308637	1	0
3	1	2	0.1	0.6	2	0.5983126250478901	1	2	0.5384286999469623	0.4461127135040575	1	1
3	2	2	0.1	0.6	2	0.4360931030784824	1	1	0.2021338000195101	0.5940714753227535	1	0
3	3	2	0.1	0.6	2	0.4632397618194604	1	1	0.4045581000391394	0.5637983577716118	2	0
3	4	2	0.1	0.6	2	0.4693544616186672	1	1	0.1818403999786824	0.4379945072635514	2	0
3	5	2	0.1	0.6	2	0.5833784565585836	1	1	0.3187861000187695	0.5352339587091897	2	0
3	6	2	0.1	0.6	2	0.4511757048299513	1	2	0.2480545999715105	0.4110729245771296	2	1
3	7	2	0.1	0.6	2	0.4819973130227751	1	1	0.2748741999967024	0.4706807784212995	2	0
3	8	2	0.1	0.6	2	0.5721340591441375	1	2	0.2417538000736386	0.5783822756472842	1	1
3	9	2	0.1	0.6	2	0.435229007411378	1	2	0.2261569000547752	0.4679639404118625	1	1
3	10	2	0.1	0.6	2	0.4522493857810864	1	2	0.4079748000949621	0.533254390808389	1	1
3	11	2	0.1	0.6	2	0.4925802756389013	1	1	0.2285263000521809	0.4111359552648055	2	0
3	12	2	0.1	0.6	2	0.4907426321702859	1	1	0.1955190000589937	0.5416577550242258	2	0
3	13	2	0.1	0.6	2	0.524843488137225	1	2	0.3316361999604851	0.4131931458377212	1	1
3	14	2	0.1	0.6	2	0.52929777224529	1	2	0.4624786999775097	0.5036019122322838	1	1
3	15	2	0.1	0.6	2	0.4590588608750248	1	2	0.224136000033468	0.406339735494141	1	1
3	16	2	0.1	0.6	2	0.5181996018364289	1	2	0.3637060000328347	0.5079608520253366	1	1
3	17	2	0.1	0.6	2	0.5871527644002539	1	2	0.2001952000427991	0.5319599010173554	1	1
3	18	2	0.1	0.6	2	0.5826177070159139	1	2	0.2168986999895424	0.5662043005638122	1	1
3	19	2	0.1	0.6	2	0.5675835346096116	1	2	0.2172079000156373	0.5227923169069525	1	1
3	20	2	0.1	0.6	2	0.4461917155329737	1	2	0.2830522999865934	0.4520354394072414	1	1
4	1	1	0.5	0.5	1	0.5393828173556295	1	1	0.3133119000121951	0.554958450330543	1	1
4	2	1	0.5	0.5	1	0.5468112042616442	1	1	0.1934219000395387	0.4868837320034022	1	1
4	3	1	0.5	0.5	1	0.4785607635376754	1	1	0.2318909999448806	0.5208628287874031	2	1
4	4	1	0.5	0.5	1	0.4114182168838597	1	1	0.3962791000958532	0.5630802070111303	2	1
4	5	1	0.5	0.5	1	0.5963840374021249	1	1	0.1981199000729248	0.5740900388726734	2	1
4	6	1	0.5	0.5	1	0.4402829041797421	1	2	0.3648559999419376	0.5171224973867947	1	0
4	7	1	0.5	0.5	1	0.5863725596772384	1	1	0.2963047999655828	0.4399420380669882	2	1
4	8	1	0.5	0.5	1	0.5808694217843622	1	2	0.3260159000055864	0.4131340428151373	2	0
4	9	1	0.5	0.5	1	0.5474839883303289	1	1	0.3737482000142336	0.4508306813838342	1	1
4	10	1	0.5	0.5	1	0.4442422316437811	1	1	0.3331277000252157	0.4102527901668943	1	1
4	11	1	0.5	0.5	1	0.5598709022539188	1	1	0.3375793999293819	0.556402094865051	1	1
4	12	1	0.5	0.5	1	0.4589115925399527	1	1	0.3730279000010341	0.4564177389231515	1	1
4	13	1	0.5	0.5	1	0.5162236247325894	1	2	0.3215081000234932	0.5152673384557502	2	0
4	14	1	0.5	0.5	1	0.4171025403276778	1	1	0.32484909996856	0.4609123265573201	2	1
4	15	1	0.5	0.5	1	0.5155261670517246	1	2	0.701692400034517	0.592003570376708	1	0
4	16	1	0.5	0.5	1	0.4281526805820581	1	2	0.5689439000561833	0.582775254211519	1	0
4	17	1	0.5	0.5	1	0.5344991138516841	1	2	1.136949999956414	0.5402455462876854	2	0
4	18	1	0.5	0.5	1	0.5003436389645285	1	1	1.128266700077802	0.443031022276593	1	1
4	19	1	0.5	0.5	1	0.5858366614803856	1	1	0.4106749999336898	0.5499670127454084	2	1
4	20	1	0.5	0.5	1	0.4333368090740061	1	1	1.084388799965382	0.4344354360803921	1	1
5	1	2	0.6	0.1	1	0.5381623211251391	1	1	0.3190999999642372	0.4739686496053773	2	1
5	2	2	0.6	0.1	1	0.530786434400812	1	2	0.1965175999794155	0.410142753304847	2	0
5	3	2	0.6	0.1	1	0.5187954487409655	1	1	0.4895928000332788	0.4452848927540144	1	1
5	4	2	0.6	0.1	1	0.5401326540315713	1	2	0.4786551999859512	0.5120071121640341	2	0
5	5	2	0.6	0.1	1	0.4927897885497654	1	1	0.2298236000351608	0.5734236537949772	2	1
5	6	2	0.6	0.1	1	0.480865423927354	1	1	0.364171199966222	0.4209826383862731	1	1
5	7	2	0.6	0.1	1	0.5138700523179024	1	1	0.2312368999700993	0.4000998548744491	1	1
5	8	2	0.6	0.1	1	0.567415834193484	1	1	0.2301435000263155	0.5599184402047352	2	1
5	9	2	0.6	0.1	1	0.4385203532078105	1	1	0.55673900002148	0.4752498648339572	1	1
5	10	2	0.6	0.1	1	0.5850158257411193	1	1	0.5373281000647694	0.511704846349635	1	1
5	11	2	0.6	0.1	1	0.5099331354094714	1	2	0.4170035000424832	0.4354512704894171	1	0
5	12	2	0.6	0.1	1	0.4846691284471181	1	2	0.3334701999556273	0.4824632211108163	1	0
5	13	2	0.6	0.1	1	0.5855302526244577	1	2	0.3277842000825331	0.5973505147295159	2	0
5	14	2	0.6	0.1	1	0.5287619130307621	1	1	0.3331203999696299	0.5287846269750032	1	1
5	15	2	0.6	0.1	1	0.4912482820583061	1	1	0.2332524999510497	0.5943470479500026	1	1
5	16	2	0.6	0.1	1	0.4980082186176404	1	1	0.257765099988319	0.4282790402767057	2	1
5	17	2	0.6	0.1	1	0.5700298757415684	1	1	0.4544163000537083	0.4463217430313218	1	1
5	18	2	0.6	0.1	1	0.5844137876201021	1	1	0.5071035000728443	0.4097856761509907	2	1
5	19	2	0.6	0.1	1	0.443376616219559	1	1	0.5298852999694645	0.5445901438175587	2	1
5	20	2	0.6	0.1	1	0.4650060547427786	1	2	0.4322395999915898	0.4218208557221836	2	0
6	1	1	0.5	0.5	1	0.5236676593895695	1	1	0.4021229000063613	0.4266185986613056	1	1
6	2	1	0.5	0.5	1	0.4645401587991588	1	1	0.2899886999512091	0.5527749590499521	1	1
6	3	1	0.5	0.5	1	0.5373822927566021	1	1	0.3668458999600261	0.5376346299228048	1	1
6	4	1	0.5	0.5	1	0.4145657999034961	1	2	0.6296267000725493	0.4303892310691927	2	0
6	5	1	0.5	0.5	1	0.5192250558333498	1	1	0.4762468000408262	0.5021456407270594	2	1
6	6	1	0.5	0.5	1	0.4984390411111907	1	1	0.5689171999692917	0.4009410908095281	1	1
6	7	1	0.5	0.5	1	0.5984417910313555	1	1	0.6768536999588832	0.5405981883817	2	1
6	8	1	0.5	0.5	1	0.5515898618599364	1	1	0.2966553999576718	0.4643324906433135	2	1
6	9	1	0.5	0.5	1	0.4101423867290687	1	1	0.3200862999074161	0.5716469906874383	1	1
6	10	1	0.5	0.5	1	0.4936739886995349	1	2	0.2028094000415877	0.5899664859182775	1	0
6	11	1	0.5	0.5	1	0.4603597520230967	1	2	0.2886968000093475	0.4987389569909893	2	0
6	12	1	0.5	0.5	1	0.5325919322773653	1	1	0.2994351000525057	0.4381842377894003	2	1
6	13	1	0.5	0.5	1	0.5787596165390205	1	1	0.3149146001087502	0.4274880518419512	1	1
6	14	1	0.5	0.5	1	0.5217002346576346	1	1	0.2762759999604896	0.5422342799982968	1	1
6	15	1	0.5	0.5	1	0.4481110651907025	1	1	0.2603280000621453	0.5640300391312832	2	1
6	16	1	0.5	0.5	1	0.490908120894239	1	2	0.4515302999643609	0.5603011825473626	2	0
6	17	1	0.5	0.5	1	0.5378371875662363	1	1	0.2121985000558197	0.5192676686054783	1	1
6	18	1	0.5	0.5	1	0.4826931556192061	1	2	0.2378025000216439	0.5252123736509742	1	0
6	19	1	0.5	0.5	1	0.4599885953119667	1	1	0.2542553000384942	0.527679824436432	2	1
6	20	1	0.5	0.5	1	0.5823462541996544	1	1	0.2673008000710979	0.5610511511415872	1	1
7	1	2	0.1	0.6	2	0.4088349310252857	1	1	1.403737399959937	0.5834671497532007	2	0
7	2	2	0.1	0.6	2	0.4556084033836224	1	2	0.4027243999298662	0.4625800281313389	2	1
7	3	2	0.1	0.6	2	0.5130083939867627	1	1	0.2554915999062359	0.4423122117840643	1	0
7	4	2	0.1	0.6	2	0.5324804448801468	1	1	0.4229521000524983	0.5242514136821328	2	0
7	5	2	0.1	0.6	2	0.4621961980955812	1	1	0.3766529000131413	0.5732193625086783	2	0
7	6	2	0.1	0.6	2	0.5761465786572555	1	1	0.3929172999924049	0.545086979263259	2	0
7	7	2	0.1	0.6	2	0.4734511800598161	1	1	0.546692100004293	0.437055143558748	1	0
7	8	2	0.1	0.6	2	0.4562688733071975	1	1	0.4007708999561146	0.5043046152657782	2	0
7	9	2	0.1	0.6	2	0.4819419535870662	1	2	0.7959823999553919	0.5412651041175824	1	1
7	10	2	0.1	0.6	2	0.5582801898198492	1	1	0.2325520999729633	0.4204052939727341	2	0
7	11	2	0.1	0.6	2	0.4406449976548864	1	1	0.1878325999714434	0.5270449080140306	2	0
7	12	2	0.1	0.6	2	0.4380014805814631	1	2	0.863567000022158	0.5802392514694934	2	1
7	13	2	0.1	0.6	2	0.5272510995905558	1	2	0.266094799968414	0.4372125279574263	1	1
7	14	2	0.1	0.6	2	0.4996391621400487	1	2	0.2349088999908417	0.5621554752616149	1	1
7	15	2	0.1	0.6	2	0.5535898595304336	1	2	0.2556327999336645	0.5330665437593963	1	1
7	16	2	0.1	0.6	2	0.4834431459580645	1	2	0.2116108000045642	0.5066780817824134	1	1
7	17	2	0.1	0.6	2	0.4318609112903271	1	1	0.4472887000301853	0.4268286454511679	2	0
7	18	2	0.1	0.6	2	0.5694065486955949	1	1	0.1939579999307171	0.584766900968765	2	0
7	19	2	0.1	0.6	2	0.5372780594829367	1	1	0.3795124000171199	0.5148168466043003	1	0
7	20	2	0.1	0.6	2	0.4996167933626351	1	2	0.2439095999579877	0.4434426166227442	2	1
8	1	2	0.1	0.6	2	0.5648563795895757	1	1	0.3539244999410585	0.5840406014589131	2	0
8	2	2	0.1	0.6	2	0.5158768468957147	1	2	0.2328640000196174	0.5192945299991236	2	1
8	3	2	0.1	0.6	2	0.5943650022141201	1	1	0.9197515000123531	0.4127490127461285	2	0
8	4	2	0.1	0.6	2	0.5689537899369063	1	1	1.081569999922067	0.5036817603873219	2	0
8	5	2	0.1	0.6	2	0.426376504374094	1	2	0.2882252000272274	0.4254970298271497	1	1
8	6	2	0.1	0.6	2	0.4970900699308757	1	2	0.3531563000287861	0.5481350650957114	1	1
8	7	2	0.1	0.6	2	0.544337145339149	1	1	0.2008400999475271	0.599992718007925	2	0
8	8	2	0.1	0.6	2	0.4504995590438126	1	2	0.2077449000207707	0.4650826593409814	2	1
8	9	2	0.1	0.6	2	0.5818908257160441	1	1	0.3984224000014365	0.4939070019818818	2	0
8	10	2	0.1	0.6	2	0.4860471106515927	1	2	0.9739873999496922	0.5200287850426786	1	1
8	11	2	0.1	0.6	2	0.5923864927531002	1	2	0.7323986000847071	0.5415650181033352	2	1
8	12	2	0.1	0.6	2	0.4377845865841691	1	1	0.3927750999573618	0.5439174409473947	2	0
8	13	2	0.1	0.6	2	0.44646604127424	1	1	0.7153270000126213	0.4561753723092766	2	0
8	14	2	0.1	0.6	2	0.4778253343470048	1	1	0.2440220999997109	0.557269989002606	2	0
8	15	2	0.1	0.6	2	0.5243911512636782	1	2	0.455345300026238	0.5201246058051705	2	1
8	16	2	0.1	0.6	2	0.4283361705287994	1	2	1.018804499995895	0.5057838392322852	1	1
8	17	2	0.1	0.6	2	0.5327572171250239	1	2	0.3172084999969229	0.4293407492920688	1	1
8	18	2	0.1	0.6	2	0.5645599997809444	1	2	0.310219099977985	0.559881955862599	2	1
8	19	2	0.1	0.6	2	0.5581310168812849	1	2	0.4088052000151947	0.4223640836958905	1	1
8	20	2	0.1	0.6	2	0.5099135095039955	1	2	0.6918384999735281	0.448881582816645	2	1
9	1	1	0.5	0.5	1	0.5873240900138208	1	2	0.6135278000729159	0.5880163049115431	2	0
9	2	1	0.5	0.5	1	0.5727767128405756	1	1	0.5258172999601811	0.4349354485582522	1	1
9	3	1	0.5	0.5	1	0.5417254591135194	1	1	0.3059697999851778	0.4147645535520509	2	1
9	4	1	0.5	0.5	1	0.5133289233842477	1	1	0.7701551999198273	0.5329750083489029	1	1
9	5	1	0.5	0.5	1	0.4770189889391614	1	1	0.5139832999557257	0.5295511134655994	2	1
9	6	1	0.5	0.5	1	0.5341359687401288	1	2	0.5131720999488607	0.5780221072815253	2	0
9	7	1	0.5	0.5	1	0.5409620520421148	1	1	1.355125100002624	0.5969073579799834	2	1
9	8	1	0.5	0.5	1	0.5774830163839838	1	2	1.276150199933909	0.506713526123355	1	0
9	9	1	0.5	0.5	1	0.5309502085931577	1	2	0.9445357999065891	0.439517216205038	2	0
9	10	1	0.5	0.5	1	0.4269298615228754	1	1	1.274522100109607	0.571234738066695	2	1
9	11	1	0.5	0.5	1	0.511181000876351	1	2	0.5797474000137299	0.4981549463482948	1	0
9	12	1	0.5	0.5	1	0.575961308713558	1	2	0.7114243999822065	0.4302875316048692	2	0
9	13	1	0.5	0.5	1	0.4083298164801255	1	2	1.486569000058807	0.551915407705553	2	0
9	14	1	0.5	0.5	1	0.4335038567955614	1	2	0.4065959999570623	0.5941425738736283	1	0
9	15	1	0.5	0.5	1	0.5570372922715133	1	1	0.3134659000206739	0.4276388884391513	2	1
9	16	1	0.5	0.5	1	0.5588347070758086	1	1	0.2574426999781281	0.5754293986591622	2	1
9	17	1	0.5	0.5	1	0.5458356473849172	1	2	0.2237312999786809	0.5589435702384067	2	0
9	18	1	0.5	0.5	1	0.5381292061573714	1	1	0.2438384999986738	0.4430959448734508	1	1
9	19	1	0.5	0.5	1	0.5738892563298303	1	1	0.4484230000525713	0.5929087596879034	1	1
9	20	1	0.5	0.5	1	0.4376205588888098	1	2	0.6786171999992803	0.5017912083108915	1	0
10	1	1	0.5	0.5	1	0.5871908222324806	1	1	0.3044476000359282	0.4198468208762732	2	1
10	2	1	0.5	0.5	1	0.4259188583517958	1	2	0.3971887000370771	0.5344833948240111	2	0
10	3	1	0.5	0.5	1	0.4883456514740434	1	2	0.2212832000805065	0.4379479280706367	1	0
10	4	1	0.5	0.5	1	0.5172003338337721	1	2	0.6075496999546885	0.5049837243689365	2	0
10	5	1	0.5	0.5	1	0.5800358035020825	1	2	0.2215339000103995	0.569017743280295	2	0
10	6	1	0.5	0.5	1	0.4793812369448789	0	n/a	n/a	n/a	n/a	n/a
10	7	1	0.5	0.5	1	0.5834745223615636	1	1	0.391321700066328	0.4146130952242301	2	1
10	8	1	0.5	0.5	1	0.4583535028208318	1	1	0.3485109000466764	0.5964332559730459	1	1
10	9	1	0.5	0.5	1	0.566546717674383	1	1	0.8797716000117362	0.4108194485773905	2	1
10	10	1	0.5	0.5	1	0.5169078653874242	1	1	1.065668800030835	0.4481704504681911	2	1
10	11	1	0.5	0.5	1	0.4713334182192846	1	2	0.6049649000633508	0.5116816539963851	1	0
10	12	1	0.5	0.5	1	0.4156214588633916	1	1	0.9409412000095472	0.5466682962536729	2	1
10	13	1	0.5	0.5	1	0.5567858046427666	1	2	0.5452331000706181	0.4117212232018836	2	0
10	14	1	0.5	0.5	1	0.4261591617253373	1	1	0.2550717999693006	0.4402878863650675	1	1
10	15	1	0.5	0.5	1	0.4214717176325689	1	1	0.2240096000023186	0.4707080028446965	2	1
10	16	1	0.5	0.5	1	0.4837260310840773	1	1	0.1584007000783458	0.5233781683591189	2	1
10	17	1	0.5	0.5	1	0.4847465909678057	1	2	0.7551658999873325	0.5803527009988938	1	0
10	18	1	0.5	0.5	1	0.5011162795268289	1	2	0.7238704999908805	0.5256027127118125	1	0
10	19	1	0.5	0.5	1	0.4724198120871949	1	2	0.6088575000176206	0.4497778701798298	2	0
10	20	1	0.5	0.5	1	0.5958552207272565	1	2	0.3087034000782296	0.5640815038157717	2	0
11	1	2	0.1	0.6	2	0.4058045777238417	1	1	0.6593322999542579	0.4224350856070721	2	0
11	2	2	0.1	0.6	2	0.4511102414524462	1	2	0.7623876000288874	0.4779844055463896	1	1
11	3	2	0.1	0.6	2	0.5888730899120554	1	2	1.244740800000727	0.4361252341669838	1	1
11	4	2	0.1	0.6	2	0.5300066819496292	1	2	0.9320954999420792	0.4197119832789369	1	1
11	5	2	0.1	0.6	2	0.5215397686352597	1	2	0.475483600050211	0.4643248431606359	2	1
11	6	2	0.1	0.6	2	0.5474210524446173	1	2	1.06392580003012	0.5346432357427957	1	1
11	7	2	0.1	0.6	2	0.5629708277550826	1	2	0.5924300999613479	0.430993150600434	2	1
11	8	2	0.1	0.6	2	0.5854747017693214	1	1	0.4535086000105366	0.5091608828304062	1	0
11	9	2	0.1	0.6	2	0.5193200309008592	1	2	0.5658949000062421	0.5656801251657786	2	1
11	10	2	0.1	0.6	2	0.4614542193114871	1	2	1.068566099973395	0.4092350639386587	1	1
11	11	2	0.1	0.6	2	0.4132661396340973	1	2	1.121930800029077	0.4366410308046067	2	1
11	12	2	0.1	0.6	2	0.4424203270943957	1	1	0.4558531000511721	0.5140786449639987	2	0
11	13	2	0.1	0.6	2	0.5933760742369858	1	2	0.328838900080882	0.5259277923594613	1	1
11	14	2	0.1	0.6	2	0.5633969127371278	1	2	0.7729711999418214	0.4844145707822695	2	1
11	15	2	0.1	0.6	2	0.5307410058005938	1	2	0.7919631999684498	0.5953793390884559	1	1
11	16	2	0.1	0.6	2	0.5040279685887489	1	2	0.4985122999642044	0.4949223771276337	1	1
11	17	2	0.1	0.6	2	0.4127516786756098	1	1	0.3913606000132859	0.4503409920866336	2	0
11	18	2	0.1	0.6	2	0.4316324461483717	1	1	0.4366350999334827	0.5563900644872578	1	0
11	19	2	0.1	0.6	2	0.4287949587580584	1	2	0.2874165999237448	0.4634366878703305	2	1
11	20	2	0.1	0.6	2	0.5642230277456994	1	2	0.415571500081569	0.4293161252402857	1	1
12	1	2	0.1	0.6	2	0.4377632900652831	1	1	0.4449404000770301	0.4815036554828717	2	0
12	2	2	0.1	0.6	2	0.5263114837772884	1	1	0.1989534000167623	0.5062139541989706	2	0
12	3	2	0.1	0.6	2	0.5472671693077888	1	1	0.2365563999628648	0.5954626939280492	2	0
12	4	2	0.1	0.6	2	0.5270636999499206	1	1	0.2179156999336556	0.5868916232173	2	0
12	5	2	0.1	0.6	2	0.5953159360827369	1	1	0.242838800069876	0.5026921773075612	2	0
12	6	2	0.1	0.6	2	0.5409700289794122	1	1	0.5595576000632718	0.5244511289460918	2	0
12	7	2	0.1	0.6	2	0.5138084582614344	1	2	0.3416415000101551	0.4622691772746723	2	1
12	8	2	0.1	0.6	2	0.5340334077327417	1	2	0.3056585999438539	0.586255826705806	1	1
12	9	2	0.1	0.6	2	0.564692694085233	1	2	0.7608295000391081	0.4091365045852435	2	1
12	10	2	0.1	0.6	2	0.5790156366295807	1	1	0.5569626999786124	0.5390463254674185	2	0
12	11	2	0.1	0.6	2	0.4575243469628809	1	2	0.4144510999321938	0.5320997792227311	1	1
12	12	2	0.1	0.6	2	0.5291189064309387	1	1	0.2428447999991477	0.4489486025978271	1	0
12	13	2	0.1	0.6	2	0.5994876652926198	1	1	0.3617528000613675	0.4384559302199513	2	0
12	14	2	0.1	0.6	2	0.4277265173603434	1	2	0.4005301999859512	0.5345672584218646	1	1
12	15	2	0.1	0.6	2	0.5038175556652197	1	2	0.7209677000064403	0.5883642509625436	1	1
12	16	2	0.1	0.6	2	0.4609916586420343	1	2	0.6881338999373838	0.5450585330099661	2	1
12	17	2	0.1	0.6	2	0.4285118762325709	1	2	0.6919765999773517	0.5739505445380259	1	1
12	18	2	0.1	0.6	2	0.5913193577849495	1	2	0.5494323000311852	0.4655021034247243	1	1
12	19	2	0.1	0.6	2	0.5877165312271103	1	1	0.2612574000377208	0.4439935120722289	2	0
12	20	2	0.1	0.6	2	0.4039720360976922	1	1	0.3119298000819981	0.5729140819344428	2	0
13	1	1	0.5	0.5	1	0.4663907151248561	1	2	0.4517857999308035	0.4605120942962769	1	0
13	2	1	0.5	0.5	1	0.482238233241812	1	2	0.372665699920617	0.5247909549699274	2	0
13	3	1	0.5	0.5	1	0.4984561660206783	1	2	0.3743814000627026	0.4113235776459555	1	0
13	4	1	0.5	0.5	1	0.5865541430358019	1	2	0.224048399948515	0.4583774504089752	2	0
13	5	1	0.5	0.5	1	0.4771444247691905	1	2	0.4591664000181481	0.4390031326235511	1	0
13	6	1	0.5	0.5	1	0.4607961040106326	1	2	0.500944499974139	0.4369158639779688	2	0
13	7	1	0.5	0.5	1	0.5638030591166818	1	1	0.3134664000244811	0.5214083193125706	2	1
13	8	1	0.5	0.5	1	0.4244275101882115	1	2	0.265486599993892	0.5747064520142419	1	0
13	9	1	0.5	0.5	1	0.4577921622412459	1	1	0.274398900102824	0.5706367702631152	1	1
13	10	1	0.5	0.5	1	0.5029956924898176	1	1	0.3995161999482661	0.556337189852838	1	1
13	11	1	0.5	0.5	1	0.4373691874001556	1	2	0.4619967000326142	0.4287331004093844	1	0
13	12	1	0.5	0.5	1	0.4976691515578819	1	2	0.4215151000535116	0.4294497687635551	2	0
13	13	1	0.5	0.5	1	0.463644340051401	1	1	0.6618419999722391	0.4207569438569245	2	1
13	14	1	0.5	0.5	1	0.4530695329967958	1	2	0.3709411999443546	0.4362559341600202	1	0
13	15	1	0.5	0.5	1	0.4701179841083187	1	2	0.7880692000035197	0.4027369553241005	1	0
13	16	1	0.5	0.5	1	0.5884578149767661	1	2	0.54413320007734	0.4063029959383734	2	0
13	17	1	0.5	0.5	1	0.5747603230420737	1	1	0.3762937999563292	0.4551436306307508	2	1
13	18	1	0.5	0.5	1	0.5465767878227654	1	2	0.3699692999944091	0.4365463813131712	1	0
13	19	1	0.5	0.5	1	0.5042188212707874	1	2	0.5994247000198811	0.4588611077502432	2	0
13	20	1	0.5	0.5	1	0.5532011808574686	1	1	0.5068082999205217	0.4005197137532351	1	1
14	1	1	0.5	0.5	1	0.4589789373825425	1	2	0.281557000009343	0.5011151931879448	2	0
14	2	1	0.5	0.5	1	0.5312675509432915	1	1	0.1058527000714093	0.5298444200120717	2	1
14	3	1	0.5	0.5	1	0.5546074350724837	1	2	0.8976105999900028	0.5072172529593695	1	0
14	4	1	0.5	0.5	1	0.4083801041976254	1	1	0.5110525999916717	0.4392930391030545	2	1
14	5	1	0.5	0.5	1	0.5132083386936573	1	1	1.034924500039779	0.5285729443100643	2	1
14	6	1	0.5	0.5	1	0.4641926161710498	1	2	0.1844078999711201	0.4967206497093237	1	0
14	7	1	0.5	0.5	1	0.4130968160421198	1	1	0.2999544999329373	0.5250645251016282	2	1
14	8	1	0.5	0.5	1	0.5884169659908084	1	2	0.05228860001079738	0.5354583826823988	2	0
14	9	1	0.5	0.5	1	0.4942100083998764	1	2	0.2615670000668615	0.5290375423316011	2	0
14	10	1	0.5	0.5	1	0.5366126353978486	1	1	0.7489485000260174	0.4957375049192369	1	1
14	11	1	0.5	0.5	1	0.494850501862381	1	2	0.7808486999711022	0.5946802050351057	1	0
14	12	1	0.5	0.5	1	0.5943626491112886	1	1	0.2992290999973193	0.4889457432443928	2	1
14	13	1	0.5	0.5	1	0.4505032100498508	1	2	0.2404239000752568	0.5685525916585238	1	0
14	14	1	0.5	0.5	1	0.4370462590459506	1	2	1.023893599980511	0.4192192112263414	2	0
14	15	1	0.5	0.5	1	0.5348268440186454	1	1	0.4304763999534771	0.5915273573252517	2	1
14	16	1	0.5	0.5	1	0.5195436175150312	1	2	0.4877229999983683	0.5912639671691478	1	0
14	17	1	0.5	0.5	1	0.4325106177594189	1	2	0.9223723999457434	0.4976889466300231	2	0
14	18	1	0.5	0.5	1	0.5635486181968731	1	2	0.9891589999897406	0.4203910792413091	2	0
14	19	1	0.5	0.5	1	0.5148732711035275	1	1	1.007847800035961	0.5572853306714931	2	1
14	20	1	0.5	0.5	1	0.4175125776197517	1	2	0.9549147000070661	0.5558062100216782	1	0
15	1	2	0.6	0.1	1	0.5867904822136626	1	2	0.4191482000751421	0.4927978979187855	2	0
15	2	2	0.6	0.1	1	0.5067183796419812	1	1	0.2182291999924928	0.5393121525905252	1	1
15	3	2	0.6	0.1	1	0.4523852402544353	1	1	0.3145178999984637	0.4065073963774032	1	1
15	4	2	0.6	0.1	1	0.4385582933339813	1	1	0.3309031999669969	0.5105283636481355	2	1
15	5	2	0.6	0.1	1	0.5728603550607294	1	1	0.1769889000570402	0.4049694643523216	1	1
15	6	2	0.6	0.1	1	0.4570400040003273	1	1	0.3422206999966875	0.5014133798736826	1	1
15	7	2	0.6	0.1	1	0.4220537316240461	1	1	0.4187349999556318	0.4915744034679658	1	1
15	8	2	0.6	0.1	1	0.4339201092429467	1	2	0.3190251999767497	0.5331540850653655	1	0
15	9	2	0.6	0.1	1	0.5976246094994691	1	2	0.3284530000528321	0.4434108908697756	2	0
15	10	2	0.6	0.1	1	0.5466301533799143	1	1	0.3196691999910399	0.5203220208654674	1	1
15	11	2	0.6	0.1	1	0.5482234918700518	1	1	0.2735615000128746	0.4122395262253299	1	1
15	12	2	0.6	0.1	1	0.5550003461310546	1	1	0.3266193999443203	0.4723373560946005	2	1
15	13	2	0.6	0.1	1	0.5169980255622466	1	1	0.8001179000129923	0.5226442289800546	2	1
15	14	2	0.6	0.1	1	0.5605280318366523	1	2	0.6370606999844313	0.5944855073040169	2	0
15	15	2	0.6	0.1	1	0.5452964631619652	1	2	0.4063601000234485	0.4646414654887065	2	0
15	16	2	0.6	0.1	1	0.5830724495236059	1	2	0.4112973000155762	0.460031989583918	2	0
15	17	2	0.6	0.1	1	0.4815726544411991	1	1	0.4402050999924541	0.4114575855121695	1	1
15	18	2	0.6	0.1	1	0.4518229486325962	1	1	1.234043500036933	0.4180636406994565	1	1
15	19	2	0.6	0.1	1	0.5298449625621773	1	1	0.6544407999608666	0.4787291781734496	2	1
15	20	2	0.6	0.1	1	0.5404744287671404	1	1	0.5717948999954388	0.4403621092708547	2	1
16	1	2	0.1	0.6	2	0.4432351357328925	1	1	0.4036736000562087	0.5238049949915277	1	0
16	2	2	0.1	0.6	2	0.4465512370743551	1	1	0.839516400010325	0.4898205181461145	2	0
16	3	2	0.1	0.6	2	0.5213706010108468	1	2	0.5214749000733718	0.506789669450615	1	1
16	4	2	0.1	0.6	2	0.5710491764366797	1	2	1.800006099976599	0.4497918454155939	1	1
16	5	2	0.1	0.6	2	0.5265306869990229	1	2	0.8882024000631645	0.4651541339149339	2	1
16	6	2	0.1	0.6	2	0.5364980889138776	1	1	0.7929674999322742	0.4753505448384774	2	0
16	7	2	0.1	0.6	2	0.4024389779411205	1	2	0.9798982999054715	0.443452914646306	1	1
16	8	2	0.1	0.6	2	0.4543513790735038	1	2	0.5418401000788435	0.5408509373153224	1	1
16	9	2	0.1	0.6	2	0.4616150138245649	1	2	0.9174884000094607	0.4951054901538887	2	1
16	10	2	0.1	0.6	2	0.5934441579154155	1	1	0.4490060000680387	0.5012700287914102	2	0
16	11	2	0.1	0.6	2	0.5021906917817841	1	1	0.7331686000106856	0.5651449773901425	2	0
16	12	2	0.1	0.6	2	0.5753297200206327	1	2	0.470235800021328	0.4856751162583328	1	1
16	13	2	0.1	0.6	2	0.5915231201741811	1	2	0.8653478000778705	0.4647590980056224	1	1
16	14	2	0.1	0.6	2	0.5906813552719667	1	2	0.6186456000432372	0.5289441468802796	1	1
16	15	2	0.1	0.6	2	0.465249031472203	1	1	0.6903696999652311	0.4326682116832617	2	0
16	16	2	0.1	0.6	2	0.4625351027759219	1	2	0.278186299954541	0.5592347022827617	1	1
16	17	2	0.1	0.6	2	0.531014806141838	1	1	0.2219283001031727	0.4106722775069716	2	0
16	18	2	0.1	0.6	2	0.4024342095316679	1	2	0.3633777999784797	0.4251211876829635	2	1
16	19	2	0.1	0.6	2	0.4310644483135021	1	1	0.2960334999952465	0.5690380791819862	2	0
16	20	2	0.1	0.6	2	0.4586199190593103	1	1	0.6987268000375479	0.4590198703774901	2	0
17	1	1	0.5	0.5	1	0.4390802479205175	1	1	0.933258599950932	0.4813134526137565	1	1
17	2	1	0.5	0.5	1	0.5513719878209676	1	1	0.9389580000424758	0.5154969203792803	1	1
17	3	1	0.5	0.5	1	0.4660970677897103	1	1	0.7519686999730766	0.4605531914282005	2	1
17	4	1	0.5	0.5	1	0.5636254894250852	1	1	1.436986900051124	0.4354588661002933	1	1
17	5	1	0.5	0.5	1	0.4474226435733467	1	1	0.9818057999946177	0.4714768043263414	1	1
17	6	1	0.5	0.5	1	0.4241207655938657	1	1	0.6020439000567421	0.5552972491988327	2	1
17	7	1	0.5	0.5	1	0.5573388493528428	1	1	0.884384399978444	0.4205656253082431	1	1
17	8	1	0.5	0.5	1	0.5181851585245829	1	1	1.099254900007509	0.5880625682237495	1	1
17	9	1	0.5	0.5	1	0.4927682901363876	0	n/a	n/a	n/a	n/a	n/a
17	10	1	0.5	0.5	1	0.4014585223233786	1	2	0.2861426998861134	0.5274223853640133	1	0
17	11	1	0.5	0.5	1	0.5911808720236715	1	2	0.4973042999627069	0.5786803401116126	2	0
17	12	1	0.5	0.5	1	0.551326564633343	1	2	0.703953200019896	0.5067339726122371	1	0
17	13	1	0.5	0.5	1	0.5255202789835527	1	1	0.3502531000413001	0.5102588286567655	2	1
17	14	1	0.5	0.5	1	0.466566248477812	1	1	0.7430646999273449	0.4289605634904571	2	1
17	15	1	0.5	0.5	1	0.4466466413314436	1	2	0.9741259000729769	0.5925600713754855	2	0
17	16	1	0.5	0.5	1	0.4005324555276958	1	1	0.3929783999919891	0.4945066850726645	1	1
17	17	1	0.5	0.5	1	0.5936888273806319	1	2	0.471127700060606	0.5985989023490286	1	0
17	18	1	0.5	0.5	1	0.423345736615928	1	1	0.4151590999681503	0.4801030510754765	2	1
17	19	1	0.5	0.5	1	0.5239169749416149	1	2	0.3241694000316784	0.4248080072599186	2	0
17	20	1	0.5	0.5	1	0.4082979892513418	1	1	0.2681721000699326	0.4211226285105706	2	1
18	1	1	0.5	0.5	1	0.4665638198156052	1	2	0.2844161000102758	0.5666192812750662	1	0
18	2	1	0.5	0.5	1	0.4697641243158257	1	2	0.4328534998930991	0.5786971723235714	1	0
18	3	1	0.5	0.5	1	0.5083458051505885	1	1	0.6688322999980301	0.4502533005102959	1	1
18	4	1	0.5	0.5	1	0.4681427078588044	1	1	0.3849172000773251	0.4195884005847976	2	1
18	5	1	0.5	0.5	1	0.5717747170922372	1	2	0.4730418999679387	0.521031190179771	2	0
18	6	1	0.5	0.5	1	0.5509389578228384	1	2	0.7894500999245793	0.5234917367799128	1	0
18	7	1	0.5	0.5	1	0.4537306902298954	1	2	1.722185800084844	0.4643664360276711	2	0
18	8	1	0.5	0.5	1	0.470636358211156	1	2	0.9754754999885336	0.4999429678607581	1	0
18	9	1	0.5	0.5	1	0.54609535159638	1	1	0.6512226000195369	0.5800426409065224	2	1
18	10	1	0.5	0.5	1	0.4792436151633772	1	2	1.572349600028247	0.567380472854761	2	0
18	11	1	0.5	0.5	1	0.5499253054394634	1	1	0.1131999000208452	0.4247092116349435	2	1
18	12	1	0.5	0.5	1	0.4376386032985783	1	2	0.1605089000659063	0.486093245132855	2	0
18	13	1	0.5	0.5	1	0.5064163475423675	1	2	0.5609230000991374	0.534261966340164	1	0
18	14	1	0.5	0.5	1	0.5849339932893423	1	2	0.7824973999522626	0.5867664457666182	1	0
18	15	1	0.5	0.5	1	0.5960102629622228	1	2	0.550486300024204	0.400742252179575	2	0
18	16	1	0.5	0.5	1	0.4867095295055301	1	1	0.7300886000739411	0.5283401356698237	2	1
18	17	1	0.5	0.5	1	0.4479532561686649	1	2	0.8921189999673516	0.4655672663040954	1	0
18	18	1	0.5	0.5	1	0.4632841659502422	1	1	0.3213708000257611	0.4413422803039214	1	1
18	19	1	0.5	0.5	1	0.4303876459727269	1	2	0.2118278000270948	0.4233402824253799	2	0
18	20	1	0.5	0.5	1	0.5321327817996448	1	1	0.3008988000219688	0.5282071477967448	2	1
19	1	2	0.1	0.6	2	0.442886254297438	1	1	0.3276368000078946	0.5388572048841062	2	0
19	2	2	0.1	0.6	2	0.5641283502562486	1	2	0.470692400005646	0.4118584669311427	1	1
19	3	2	0.1	0.6	2	0.52475267155765	1	2	0.3620174999814481	0.4193987517739036	1	1
19	4	2	0.1	0.6	2	0.5414636422598592	1	1	0.315528699895367	0.5148084474896626	2	0
19	5	2	0.1	0.6	2	0.468285759785614	1	1	0.4503250999841839	0.5465678250186763	2	0
19	6	2	0.1	0.6	2	0.5944996082450089	1	2	0.2393957000458613	0.4010596540361913	2	1
19	7	2	0.1	0.6	2	0.5639963233829897	1	2	0.5561202999670058	0.4397084630186289	2	1
19	8	2	0.1	0.6	2	0.4369841943103236	1	2	0.3138259999686852	0.5501919028429636	1	1
19	9	2	0.1	0.6	2	0.4776185085685408	1	2	1.89183320000302	0.4160851013342998	1	1
19	10	2	0.1	0.6	2	0.4021447563108906	1	2	0.5385472000343725	0.4103045098019425	1	1
19	11	2	0.1	0.6	2	0.5372360731415728	1	1	0.3713771000038832	0.5019060865809519	2	0
19	12	2	0.1	0.6	2	0.5210147066340619	1	1	0.3148623000597581	0.5412713166424595	2	0
19	13	2	0.1	0.6	2	0.4912173506402608	1	2	0.3595804000506178	0.4865768194420668	1	1
19	14	2	0.1	0.6	2	0.5370666353775209	1	1	0.815458899945952	0.5677318591220709	1	0
19	15	2	0.1	0.6	2	0.4323412946419894	1	2	0.5886697000823915	0.426982295635899	1	1
19	16	2	0.1	0.6	2	0.5413823567800665	1	1	0.3950923000229523	0.5327643314962744	2	0
19	17	2	0.1	0.6	2	0.5404386162248264	1	1	0.3871757000451908	0.5222844416531518	2	0
19	18	2	0.1	0.6	2	0.5317724700920619	1	2	0.1991906999610364	0.4408463086118136	2	1
19	19	2	0.1	0.6	2	0.5977149592246205	1	2	0.2352748999837786	0.4665672054377992	2	1
19	20	2	0.1	0.6	2	0.569164017296777	1	1	0.4830500000389293	0.4784634394507541	2	0
20	1	1	0.5	0.5	1	0.4145233839523281	1	1	0.2413011000026017	0.4486824251647766	2	1
20	2	1	0.5	0.5	1	0.5363623741649085	1	2	0.1191876999801025	0.5514960252384347	1	0
20	3	1	0.5	0.5	1	0.5068171889394959	1	2	0.2119803000241518	0.5276650961118377	2	0
20	4	1	0.5	0.5	1	0.5655044484082173	1	2	0.2431386999087408	0.5900030076472959	1	0
20	5	1	0.5	0.5	1	0.4343532114415614	1	2	0.317827699938789	0.4961022136341524	1	0
20	6	1	0.5	0.5	1	0.4234408221462409	1	2	0.3410403000889346	0.565869215249817	1	0
20	7	1	0.5	0.5	1	0.5989970968202688	1	1	0.2632230999879539	0.5439683993296129	1	1
20	8	1	0.5	0.5	1	0.5783973601916726	1	2	0.3959538000635803	0.5555621470271942	2	0
20	9	1	0.5	0.5	1	0.4740844515334687	1	2	0.3495087999617681	0.5456188119884356	1	0
20	10	1	0.5	0.5	1	0.5008886882073048	1	2	0.5124869999708608	0.582124016678791	2	0
20	11	1	0.5	0.5	1	0.5432431176159083	1	2	0.3727287000510842	0.5747195883138532	2	0
20	12	1	0.5	0.5	1	0.422259797822589	1	1	0.5537087999982759	0.5633561261796701	2	1
20	13	1	0.5	0.5	1	0.5292796780721211	1	2	0.5044889999553561	0.4525338063598053	2	0
20	14	1	0.5	0.5	1	0.4369234944258069	1	1	0.3299177000299096	0.4968803874814935	1	1
20	15	1	0.5	0.5	1	0.4466321075539603	1	1	0.5147792000789195	0.4310714105959218	2	1
20	16	1	0.5	0.5	1	0.453750356708366	1	2	0.3968062000349164	0.4709113660303358	1	0
20	17	1	0.5	0.5	1	0.5226614285882638	1	1	1.012495300034061	0.4803472617263302	2	1
20	18	1	0.5	0.5	1	0.452740565307902	1	1	0.5532256999285892	0.5008074425985845	1	1
20	19	1	0.5	0.5	1	0.4395171851226448	1	1	0.5067349999444559	0.5822594250255647	2	1
20	20	1	0.5	0.5	1	0.5329671336136727	1	2	0.5969392000697553	0.4258705533452147	2	0
