blockNum	trialNum	condition	pWin1	pWin2	optimalResponse	preStimulusDelay	responded	response	rt	preFeedbackDelay	outcome	optimal
1	1	2	0.1	0.6	2	0.4782863603702974	0	n/a	n/a	n/a	n/a	n/a
1	2	2	0.1	0.6	2	0.5835379980913583	0	n/a	n/a	n/a	n/a	n/a
1	3	2	0.1	0.6	2	0.5974360736563534	0	n/a	n/a	n/a	n/a	n/a
1	4	2	0.1	0.6	2	0.4390292845690066	1	1	0.4584061999921687	0.5364802593917879	2	0
1	5	2	0.1	0.6	2	0.4756869044499235	0	n/a	n/a	n/a	n/a	n/a
1	6	2	0.1	0.6	2	0.4266687134860568	1	2	0.4892710000276566	0.4911330754915861	1	1
1	7	2	0.1	0.6	2	0.572176765606067	0	n/a	n/a	n/a	n/a	n/a
1	8	2	0.1	0.6	2	0.4828709537564761	0	n/a	n/a	n/a	n/a	n/a
1	9	2	0.1	0.6	2	0.5415252303016005	1	2	1.636035099974833	0.574853581076009	2	1
1	10	2	0.1	0.6	2	0.5249245461358394	1	1	0.4911374000366777	0.568562939113421	2	0
1	11	2	0.1	0.6	2	0.4432603012106633	1	1	0.748383299971465	0.4333335826501671	2	0
1	12	2	0.1	0.6	2	0.4645395326019945	0	n/a	n/a	n/a	n/a	n/a
1	13	2	0.1	0.6	2	0.5703328530859728	1	2	0.458814799960237	0.4713688495085755	1	1
1	14	2	0.1	0.6	2	0.4435614375686879	1	1	1.960583499982022	0.5473622267749794	2	0
1	15	2	0.1	0.6	2	0.5788096376531253	1	2	0.2198280000011437	0.5634629119766111	2	1
1	16	2	0.1	0.6	2	0.5727984369725024	1	1	0.8869544999906793	0.4849793918760497	2	0
1	17	2	0.1	0.6	2	0.5308355067920889	1	2	0.9824710999964736	0.4254282285138266	2	1
1	18	2	0.1	0.6	2	0.4322083964174948	1	1	0.490548099973239	0.5160038865382587	2	0
1	19	2	0.1	0.6	2	0.412396112143511	1	1	0.3292347000096925	0.5801927194949078	2	0
1	20	2	0.1	0.6	2	0.5925078276647816	1	1	0.8416102000046521	0.4019210114968822	2	0
2	1	2	0.1	0.6	2	0.4964176182131457	0	n/a	n/a	n/a	n/a	n/a
2	2	2	0.1	0.6	2	0.5866022891044058	1	2	0.3607268999912776	0.5644711416964483	1	1
2	3	2	0.1	0.6	2	0.5769695977130516	1	2	1.956521400017664	0.5606733529631194	1	1
2	4	2	0.1	0.6	2	0.4900914519948485	1	1	1.587678299983963	0.4664979882396847	2	0
2	5	2	0.1	0.6	2	0.5799036990757771	1	2	0.491255100001581	0.4277468060594116	1	1
2	6	2	0.1	0.6	2	0.512919250160889	1	2	1.315469999972265	0.5352447694546444	1	1
2	7	2	0.1	0.6	2	0.5989161582956121	1	2	0.8976850000326522	0.5750154253261043	1	1
2	8	2	0.1	0.6	2	0.4184008326919585	1	2	0.8261902999947779	0.4777407526642622	1	1
2	9	2	0.1	0.6	2	0.540074540147822	1	2	0.5285013999673538	0.5222342300378831	1	1
2	10	2	0.1	0.6	2	0.43936212501302	1	2	0.5739750000066124	0.4338411980391248	2	1
2	11	2	0.1	0.6	2	0.5941906731711615	1	1	0.6131846000207588	0.4123512385138569	2	0
2	12	2	0.1	0.6	2	0.4840440437088467	1	2	0.412324599979911	0.5555226877952908	2	1
2	13	2	0.1	0.6	2	0.4452154969269576	1	1	0.675214099988807	0.5809094595839353	2	0
2	14	2	0.1	0.6	2	0.5189987250409129	1	2	1.736482800042722	0.4189680196664185	1	1
2	15	2	0.1	0.6	2	0.554622970559001	1	2	0.3833593999734148	0.5274217538026381	2	1
2	16	2	0.1	0.6	2	0.5327123394453245	1	1	0.8084886000142433	0.564590668851129	2	0
2	17	2	0.1	0.6	2	0.4863241284073084	1	2	0.3653282999875955	0.5322895185233723	1	1
2	18	2	0.1	0.6	2	0.5971102284530505	1	2	1.166467700037174	0.4885836484416332	1	1
2	19	2	0.1	0.6	2	0.5923166669324456	1	2	0.5606321999803185	0.4043499939303913	1	1
2	20	2	0.1	0.6	2	0.4616509641644081	1	2	1.477603500010446	0.5317176669341236	1	1
3	1	1	0.5	0.5	1	0.4900845226801637	0	n/a	n/a	n/a	n/a	n/a
3	2	1	0.5	0.5	1	0.493309282724143	1	2	0.2272333999862894	0.433875302556933	1	0
3	3	1	0.5	0.5	1	0.4280070687499173	1	2	0.7547140999813564	0.5466166203057827	2	0
3	4	1	0.5	0.5	1	0.4263644350042827	1	1	0.3800520000513643	0.4071408377559411	1	1
3	5	1	0.5	0.5	1	0.4592074089053523	1	1	0.4639989000279456	0.4892207725446789	1	1
3	6	1	0.5	0.5	1	0.5501472564496834	1	1	0.3281111000105739	0.5113170067601909	2	1
3	7	1	0.5	0.5	1	0.5004869747084626	1	2	0.5057450999738649	0.4436282331728365	2	0
3	8	1	0.5	0.5	1	0.4141931690316194	1	1	0.2570383999845944	0.591758205116638	2	1
3	9	1	0.5	0.5	1	0.552820188075752	1	2	0.2769562999601476	0.5273470648147521	1	0
3	10	1	0.5	0.5	1	0.5226632120022099	1	1	0.4231346999877132	0.513137093675794	2	1
3	11	1	0.5	0.5	1	0.5316075600732582	1	2	0.09953020000830293	0.4734557007068553	2	0
3	12	1	0.5	0.5	1	0.5347747988072391	1	1	0.3512241000426002	0.5034852294691722	2	1
3	13	1	0.5	0.5	1	0.4997822602187106	1	2	0.3391179000027478	0.5483995999303027	2	0
3	14	1	0.5	0.5	1	0.4749288005577077	1	2	0.781994900025893	0.4749158381652038	1	0
3	15	1	0.5	0.5	1	0.4781575991225693	1	1	0.357932900020387	0.446842452840352	2	1
3	16	1	0.5	0.5	1	0.5133278921151621	1	2	0.2603963000001386	0.4026332654200275	2	0
3	17	1	0.5	0.5	1	0.5227985185948369	1	2	0.4694861000170931	0.5435310505954536	1	0
3	18	1	0.5	0.5	1	0.473159007605331	1	2	0.3954624999896623	0.434430005952571	2	0
3	19	1	0.5	0.5	1	0.4875778766028818	1	1	0.6616054999758489	0.436692214024884	2	1
3	20	1	0.5	0.5	1	0.5612148264018896	1	2	0.3979418000089936	0.4580511358876554	2	0
4	1	1	0.5	0.5	1	0.5926293712552653	0	n/a	n/a	n/a	n/a	n/a
4	2	1	0.5	0.5	1	0.4310211674932697	1	2	0.2341514999861829	0.5222976949792688	2	0
4	3	1	0.5	0.5	1	0.4717097835193514	1	2	0.3503455999889411	0.4511820030659339	2	0
4	4	1	0.5	0.5	1	0.4759792853872453	1	1	0.684360800019931	0.5230345491285279	1	1
4	5	1	0.5	0.5	1	0.5115245117319783	1	1	0.2647432000376284	0.5872685818147368	2	1
4	6	1	0.5	0.5	1	0.4700601389259805	1	2	0.3244493000092916	0.5718462992481075	1	0
4	7	1	0.5	0.5	1	0.5217654800035558	1	2	0.2812456000247039	0.5810329236624194	1	0
4	8	1	0.5	0.5	1	0.4093050895719168	1	2	0.4545963000273332	0.4122472916056378	1	0
4	9	1	0.5	0.5	1	0.4218580162741027	1	2	0.7743429999682121	0.4816037006973424	1	0
4	10	1	0.5	0.5	1	0.5623326867979389	1	2	0.5898521000053734	0.4688544892968882	2	0
4	11	1	0.5	0.5	1	0.5370847588639122	1	1	0.5131607999792323	0.54328022959107	1	1
4	12	1	0.5	0.5	1	0.4453769823965645	1	1	0.6132379000191577	0.5176672883320792	1	1
4	13	1	0.5	0.5	1	0.5791722865958839	1	1	0.2889138999744318	0.480138813144936	1	1
4	14	1	0.5	0.5	1	0.5692845338400835	1	1	0.3210670000407845	0.5585161959156478	2	1
4	15	1	0.5	0.5	1	0.4638920588656802	1	2	0.2825076999724843	0.4657367304876536	1	0
4	16	1	0.5	0.5	1	0.4995698157230017	1	2	0.425747900037095	0.5176195636982143	2	0
4	17	1	0.5	0.5	1	0.5063966090753371	1	1	0.2632085000514053	0.5352413844288766	1	1
4	18	1	0.5	0.5	1	0.5902394803945298	1	1	0.2832522999960929	0.4946941264673911	2	1
4	19	1	0.5	0.5	1	0.4138744106052041	1	2	0.3491220000432804	0.5830122570022863	1	0
4	20	1	0.5	0.5	1	0.5445458750698968	1	2	0.4151207000249997	0.5234479011834409	1	0
5	1	2	0.6	0.1	1	0.501736925882683	1	1	1.608972999965772	0.5442906781306023	1	1
5	2	2	0.6	0.1	1	0.519792837942737	1	1	0.2102162999799475	0.5429894663640042	1	1
5	3	2	0.6	0.1	1	0.4194646154836621	1	1	0.2316950000240467	0.4438882105066163	1	1
5	4	2	0.6	0.1	1	0.5329082802423568	1	1	0.2642749000224285	0.5404619128048994	2	1
5	5	2	0.6	0.1	1	0.5845714823761001	1	2	0.2563336999737658	0.4519914762436696	2	0
5	6	2	0.6	0.1	1	0.5395908231756268	1	1	0.2470724000013433	0.4635219513638226	1	1
5	7	2	0.6	0.1	1	0.4759429783200479	1	1	0.3181410999968648	0.5860091910556158	1	1
5	8	2	0.6	0.1	1	0.5380004312548737	1	1	0.2479026000364684	0.4224005484823081	1	1
5	9	2	0.6	0.1	1	0.4527823473358793	1	1	0.2811236000270583	0.5775409296490989	1	1
5	10	2	0.6	0.1	1	0.5425945215986162	1	1	0.2448667999706231	0.4950386181729312	1	1
5	11	2	0.6	0.1	1	0.4229440124787613	1	1	0.3004833000013605	0.4448140046482056	2	1
5	12	2	0.6	0.1	1	0.5943914823468464	1	2	0.5791346000041813	0.4605973521542369	2	0
5	13	2	0.6	0.1	1	0.401806559909354	1	1	0.2854199000285007	0.4917978255231771	1	1
5	14	2	0.6	0.1	1	0.4535541682423858	1	1	0.3039122000336647	0.5823103603225993	1	1
5	15	2	0.6	0.1	1	0.5530096511595713	1	1	0.2586732000345364	0.411026401333933	1	1
5	16	2	0.6	0.1	1	0.5751866923571396	1	1	0.3016115000355057	0.5626926452152332	2	1
5	17	2	0.6	0.1	1	0.4993251209906331	1	2	0.2306887999875471	0.4249756969647689	2	0
5	18	2	0.6	0.1	1	0.5849039237126158	1	1	0.3265102000441402	0.4970877009726866	1	1
5	19	2	0.6	0.1	1	0.5862547745553749	1	1	0.8260891999816522	0.5351380244408642	2	1
5	20	2	0.6	0.1	1	0.5921180279924443	1	2	0.6649424999486655	0.4473594677362558	1	0
6	1	2	0.1	0.6	2	0.5799345259841586	0	n/a	n/a	n/a	n/a	n/a
6	2	2	0.1	0.6	2	0.4908464097315345	1	2	0.3432623999542557	0.4082974961982935	1	1
6	3	2	0.1	0.6	2	0.591884687376288	1	2	0.246874000004027	0.5767145679754895	2	1
6	4	2	0.1	0.6	2	0.5547934588349783	1	1	0.2463268000283279	0.4488199817701554	2	0
6	5	2	0.1	0.6	2	0.555616058269391	1	1	0.000458700000308454	0.4896990475163365	2	0
6	6	2	0.1	0.6	2	0.4311575946962238	1	2	0.2787278000032529	0.496098245362794	2	1
6	7	2	0.1	0.6	2	0.5212604950572085	1	2	0.2783304000040516	0.5862382790536727	1	1
6	8	2	0.1	0.6	2	0.5465681386534373	1	2	0.6504221000359394	0.5437433910113131	1	1
6	9	2	0.1	0.6	2	0.4721680184671477	1	1	0.2837803000002168	0.5671895735777865	2	0
6	10	2	0.1	0.6	2	0.4437574102496321	1	2	0.001460600004065782	0.5162247255758523	2	1
6	11	2	0.1	0.6	2	0.4554576116160008	1	1	0.00044299999717623	0.4447973440947435	2	0
6	12	2	0.1	0.6	2	0.416841074517067	1	2	0.00145929999416694	0.4827337156915147	1	1
6	13	2	0.1	0.6	2	0.4024051336458773	1	2	0.0506607000133954	0.4617464023870467	1	1
6	14	2	0.1	0.6	2	0.487965832626916	1	2	0.2938206000253558	0.4453626551042179	1	1
6	15	2	0.1	0.6	2	0.5915083646239905	1	2	0.3098556000040844	0.4599790487887833	1	1
6	16	2	0.1	0.6	2	0.4437250871131129	1	2	0.5005784999812022	0.520340607498567	2	1
6	17	2	0.1	0.6	2	0.5048845453259827	1	1	0.2251560000004247	0.5582253929932469	2	0
6	18	2	0.1	0.6	2	0.536452764046476	1	2	0.2569959000102244	0.4615178357492329	1	1
6	19	2	0.1	0.6	2	0.4092816078387311	1	2	0.246199399989564	0.4149699658953732	2	1
6	20	2	0.1	0.6	2	0.5983455728216673	1	1	0.6229183999821544	0.4961740554602405	2	0
7	1	1	0.5	0.5	1	0.5035738690698023	0	n/a	n/a	n/a	n/a	n/a
7	2	1	0.5	0.5	1	0.4905206675566207	1	1	0.5026016000192612	0.5661268251584379	1	1
7	3	1	0.5	0.5	1	0.5013927957560377	1	1	0.3614595999824814	0.5446174719863437	1	1
7	4	1	0.5	0.5	1	0.5867334346079203	1	1	0.6807624000357464	0.4728113064341556	2	1
7	5	1	0.5	0.5	1	0.4171261723575945	1	2	0.295749299984891	0.5361104578273	1	0
7	6	1	0.5	0.5	1	0.4381616205987957	1	2	0.3203966000000946	0.4510215259863862	1	0
7	7	1	0.5	0.5	1	0.4776219293196385	1	2	0.3119880999438465	0.441085552357987	1	0
7	8	1	0.5	0.5	1	0.5809146843670724	1	2	0.5238902000128292	0.4880223244201652	2	0
7	9	1	0.5	0.5	1	0.4191928141978544	1	1	0.4947604000335559	0.5972648148006399	1	1
7	10	1	0.5	0.5	1	0.422634659590486	1	1	1.603927700023632	0.5427228209503314	1	1
7	11	1	0.5	0.5	1	0.4784735731654416	1	1	0.0499712000018917	0.5611429710605305	2	1
7	12	1	0.5	0.5	1	0.4296268121844009	1	2	0.4265670000459068	0.4631238180519344	1	0
7	13	1	0.5	0.5	1	0.5805398791476517	1	2	0.2614176999777555	0.5106198542946148	2	0
7	14	1	0.5	0.5	1	0.4977910171632883	1	1	0.3098546999972314	0.5450676760801511	1	1
7	15	1	0.5	0.5	1	0.5375818040099382	1	1	0.4995557999936864	0.5956624969193567	2	1
7	16	1	0.5	0.5	1	0.528730663316469	1	2	0.3244770000455901	0.411743161080493	1	0
7	17	1	0.5	0.5	1	0.4396027586047007	1	2	0.109198699996341	0.4232310004048633	1	0
7	18	1	0.5	0.5	1	0.4362613149721226	1	2	0.1307242000475526	0.5884125350240914	1	0
7	19	1	0.5	0.5	1	0.5522348630546189	1	2	0.5441683999961242	0.5330512377040159	2	0
7	20	1	0.5	0.5	1	0.4033073640836169	1	1	0.3648737000185065	0.4646013746155726	2	1
8	1	1	0.5	0.5	1	0.5324804161969937	0	n/a	n/a	n/a	n/a	n/a
8	2	1	0.5	0.5	1	0.4664894841518666	1	2	0.146290400007274	0.5264879186647962	1	0
8	3	1	0.5	0.5	1	0.4736915393342602	1	2	0.2218550000106916	0.5385049875039385	2	0
8	4	1	0.5	0.5	1	0.484091432405412	1	1	0.0004106000415049493	0.4303365012829571	2	1
8	5	1	0.5	0.5	1	0.4412454168363703	1	2	0.08969609998166561	0.4317738836384226	2	0
8	6	1	0.5	0.5	1	0.5699514116592503	1	2	0.1312680999981239	0.4921493586922692	1	0
8	7	1	0.5	0.5	1	0.5385849362305291	1	2	0.2738884999998845	0.4365823867940528	2	0
8	8	1	0.5	0.5	1	0.5672090963308122	1	1	0.1558085999567993	0.4303456683482572	2	1
8	9	1	0.5	0.5	1	0.585154871436677	1	2	0.2681853999965824	0.4644823019315649	1	0
8	10	1	0.5	0.5	1	0.5629575378177586	1	2	0.1836241999990307	0.5053763231172368	2	0
8	11	1	0.5	0.5	1	0.4916304753492301	1	1	0.1212718000169843	0.5918622912949096	2	1
8	12	1	0.5	0.5	1	0.5056699346350675	1	2	0.2680363000254147	0.5398784806710948	1	0
8	13	1	0.5	0.5	1	0.4386479113011507	1	2	0.05107109999516979	0.4355618620905124	2	0
8	14	1	0.5	0.5	1	0.4096661071807215	1	1	0.2828189999563619	0.4355061470105375	2	1
8	15	1	0.5	0.5	1	0.5365170884812263	1	2	0.1498174000298604	0.5031544113750614	2	0
8	16	1	0.5	0.5	1	0.4371780233624223	1	2	0.07123780000256374	0.4162346692454605	1	0
8	17	1	0.5	0.5	1	0.434286036866313	1	2	0.2742684000404552	0.5473874548651598	2	0
8	18	1	0.5	0.5	1	0.4780049006902616	1	1	0.2724624999682419	0.4852785570842148	1	1
8	19	1	0.5	0.5	1	0.5940228143927032	1	1	0.002033400000073016	0.4724979809648265	2	1
8	20	1	0.5	0.5	1	0.5259357066197524	1	2	0.4753909999853931	0.4306127710260642	1	0
9	1	2	0.6	0.1	1	0.5718044200995245	0	n/a	n/a	n/a	n/a	n/a
9	2	2	0.6	0.1	1	0.4841251057928863	1	1	0.4367077000206336	0.5052256338105265	1	1
9	3	2	0.6	0.1	1	0.4503180496537376	1	1	0.2258659999934025	0.5068943593181447	1	1
9	4	2	0.6	0.1	1	0.4282368243614935	1	1	0.2606928999884985	0.5851080146380655	1	1
9	5	2	0.6	0.1	1	0.5302962259452381	1	1	0.2455718999844976	0.5321192636078037	2	1
9	6	2	0.6	0.1	1	0.4405692141326958	1	2	0.3367159999907017	0.4410095998657523	2	0
9	7	2	0.6	0.1	1	0.5973656999712272	1	2	0.6899509999784641	0.5247611600857046	2	0
9	8	2	0.6	0.1	1	0.5889419287349492	1	1	0.0005364000098779798	0.5002362428047975	2	1
9	9	2	0.6	0.1	1	0.4463791965698513	1	2	0.2538513999897987	0.5765404590960548	2	0
9	10	2	0.6	0.1	1	0.581053704501254	1	2	0.7241100000101142	0.5094532069372464	2	0
9	11	2	0.6	0.1	1	0.556090708500977	1	1	0.3003778000129387	0.4780685158507385	1	1
9	12	2	0.6	0.1	1	0.4595623248131209	1	1	0.3108734000124969	0.4606606184225436	2	1
9	13	2	0.6	0.1	1	0.4776579302804244	1	2	0.3120968000148423	0.4870610053224523	2	0
9	14	2	0.6	0.1	1	0.4237653543106886	1	1	0.0004219000111334026	0.4496903278105379	1	1
9	15	2	0.6	0.1	1	0.4714452892458984	1	1	0.2342459000064991	0.5793206544870089	1	1
9	16	2	0.6	0.1	1	0.4161960011045782	1	1	0.2503967999946326	0.5846503775750811	1	1
9	17	2	0.6	0.1	1	0.5584228100742504	1	1	0.001861599972471595	0.5760533341714905	1	1
9	18	2	0.6	0.1	1	0.5511580986953892	1	1	0.614426199987065	0.5405017012557083	1	1
9	19	2	0.6	0.1	1	0.545637537550632	1	1	0.07975000003352761	0.4740602956341751	1	1
9	20	2	0.6	0.1	1	0.5560735424829444	1	1	0.02777209994383156	0.4464421261980155	1	1
10	1	2	0.6	0.1	1	0.4108161295575408	1	2	1.561939999985043	0.5647169156137609	2	0
10	2	2	0.6	0.1	1	0.595691015153253	1	1	0.1497441999963485	0.4085075527284379	2	1
10	3	2	0.6	0.1	1	0.4535522784486039	1	2	0.0004045999958179891	0.5802344159110843	2	0
10	4	2	0.6	0.1	1	0.4731081989533927	1	2	0.3007483999826945	0.5029447333746224	2	0
10	5	2	0.6	0.1	1	0.5831295956248586	1	1	0.5078879999928176	0.5900495516627249	2	1
10	6	2	0.6	0.1	1	0.557379049827986	1	1	0.001495699980296195	0.56253576696701	2	1
10	7	2	0.6	0.1	1	0.4725979349620977	1	2	0.361771400028374	0.5005573764222873	2	0
10	8	2	0.6	0.1	1	0.4627080674926335	1	2	0.3344992999918759	0.5623425282405645	1	0
10	9	2	0.6	0.1	1	0.5675265823121569	1	2	0.2919539000140503	0.5940450525902801	2	0
10	10	2	0.6	0.1	1	0.5767777453789884	1	1	0.0004664000007323921	0.4275221608139314	2	1
10	11	2	0.6	0.1	1	0.4289268878004617	1	2	0.0004360000020824373	0.5871999840152495	2	0
10	12	2	0.6	0.1	1	0.4866566469970431	1	2	0.1026432000217028	0.4472554811864882	2	0
10	13	2	0.6	0.1	1	0.5621237670357232	1	1	0.4211441000225022	0.5769138843600357	2	1
10	14	2	0.6	0.1	1	0.5577915785086982	1	2	0.0120009999955073	0.4205805182883022	2	0
10	15	2	0.6	0.1	1	0.4175003759484189	1	2	0.3088641999638639	0.4870320948537978	2	0
10	16	2	0.6	0.1	1	0.5186720578094792	1	2	0.3151766000082716	0.5577614293931954	2	0
10	17	2	0.6	0.1	1	0.5696790671570765	1	1	0.4496582999709062	0.4116919272474891	2	1
10	18	2	0.6	0.1	1	0.4722575665975006	1	1	0.02162819996010512	0.5800987215873944	1	1
10	19	2	0.6	0.1	1	0.5828157343027356	1	1	0.4968599999556318	0.5785473310951258	1	1
10	20	2	0.6	0.1	1	0.4720617553317864	1	1	0.2270045000477694	0.5867754870708682	2	1
11	1	1	0.5	0.5	1	0.4891916668135728	1	2	1.357529399974737	0.5253849797990038	2	0
11	2	1	0.5	0.5	1	0.4722127724901146	1	1	0.5307616000063717	0.5125196945294913	1	1
11	3	1	0.5	0.5	1	0.5111376472427139	1	1	0.3522840999648906	0.5892606549194505	2	1
11	4	1	0.5	0.5	1	0.5437792123076822	1	2	0.304594499990344	0.5968325674891625	2	0
11	5	1	0.5	0.5	1	0.5432794131394076	1	2	0.001456899975892156	0.5999345259851179	1	0
11	6	1	0.5	0.5	1	0.5941182776870696	1	2	0.3922037000302225	0.5355421242381444	1	0
11	7	1	0.5	0.5	1	0.4854728074070146	1	2	0.1159230999764986	0.5711152471949779	2	0
11	8	1	0.5	0.5	1	0.4824094825201999	1	1	0.1341070999624208	0.5762056564202753	2	1
11	9	1	0.5	0.5	1	0.5932724891214096	1	1	0.6220512000145391	0.4422321403769738	1	1
11	10	1	0.5	0.5	1	0.4546824760981316	1	1	0.2893743999884464	0.5418700913568224	2	1
11	11	1	0.5	0.5	1	0.4751002362199599	1	2	0.2727460999740288	0.5989757269926805	1	0
11	12	1	0.5	0.5	1	0.4833072310906534	1	2	0.3641132999910042	0.4927411233724395	1	0
11	13	1	0.5	0.5	1	0.5777907337003925	1	2	0.5574037000187673	0.4740066516007923	2	0
11	14	1	0.5	0.5	1	0.4719753494248103	1	1	0.3011840999824926	0.5420923232945448	1	1
11	15	1	0.5	0.5	1	0.4174387618821463	1	1	0.0004088999703526497	0.5584064229248767	2	1
11	16	1	0.5	0.5	1	0.5952017215913971	1	2	0.000403400044888258	0.5141950285854201	1	0
11	17	1	0.5	0.5	1	0.5892060460312752	1	2	0.8323747999966145	0.5984153653515358	1	0
11	18	1	0.5	0.5	1	0.5521958530110069	1	2	0.1576471000444144	0.441373226405694	2	0
11	19	1	0.5	0.5	1	0.5161321424409281	1	2	0.0004087000270374119	0.4724554138580182	1	0
11	20	1	0.5	0.5	1	0.4309585624352019	1	2	0.5358100000303239	0.5121021222492599	1	0
12	1	1	0.5	0.5	1	0.5913362370542716	1	2	0.6543904999853112	0.5852325867789777	2	0
12	2	1	0.5	0.5	1	0.544952994579196	1	1	0.0005680000176653266	0.4848350328698653	2	1
12	3	1	0.5	0.5	1	0.407652552429517	1	1	0.01450450002448633	0.4716928311966316	1	1
12	4	1	0.5	0.5	1	0.431402536433639	1	1	0.2195967999869026	0.4879096518413738	2	1
12	5	1	0.5	0.5	1	0.4944822647300905	1	2	0.0004657999961636961	0.519706591098458	2	0
12	6	1	0.5	0.5	1	0.5714781821489413	1	1	0.0004141000099480152	0.5639526710329824	2	1
12	7	1	0.5	0.5	1	0.481785932531455	1	2	0.0004061000072397292	0.4693410723476641	2	0
12	8	1	0.5	0.5	1	0.5939350827732022	1	2	0.5863235000288114	0.5808577753134747	2	0
12	9	1	0.5	0.5	1	0.4802057924553499	1	1	0.0004066000110469759	0.4974331526188749	2	1
12	10	1	0.5	0.5	1	0.5428776100081731	1	2	0.0009586000232957304	0.5111704910402662	2	0
12	11	1	0.5	0.5	1	0.4043394715604189	1	2	0.01712690002750605	0.4960556738431927	2	0
12	12	1	0.5	0.5	1	0.5612827849666353	1	2	0.1275597999920137	0.4278143730329722	1	0
12	13	1	0.5	0.5	1	0.5494941256460373	1	2	0.2607536999857984	0.4338352816999327	2	0
12	14	1	0.5	0.5	1	0.5660248966883935	1	1	0.5164064999553375	0.496598809146074	2	1
12	15	1	0.5	0.5	1	0.5147112067837093	1	1	0.508510900021065	0.4439072293314142	1	1
12	16	1	0.5	0.5	1	0.4734434620021378	1	1	0.3536162000382319	0.5229628928274787	2	1
12	17	1	0.5	0.5	1	0.4557781074807626	1	2	0.2592358000110835	0.5303214601584799	2	0
12	18	1	0.5	0.5	1	0.508150673863344	1	1	0.2850117999478243	0.4608281378724737	2	1
12	19	1	0.5	0.5	1	0.425021675321463	1	2	0.3247531999950297	0.4146269538880493	2	0
12	20	1	0.5	0.5	1	0.4428619374874527	1	1	0.001475900004152209	0.4272716694220452	2	1
13	1	2	0.6	0.1	1	0.576895767394628	1	1	1.032509899989236	0.4327342135169774	2	1
13	2	2	0.6	0.1	1	0.554943853091202	1	1	0.05922880000434816	0.4756791999771583	2	1
13	3	2	0.6	0.1	1	0.5894517105840218	1	2	0.2303447999875061	0.4285055620365852	2	0
13	4	2	0.6	0.1	1	0.501760732070891	1	1	0.004572800011374056	0.5116778079609977	1	1
13	5	2	0.6	0.1	1	0.4154575286160495	1	1	0.01152739999815822	0.550656460396641	1	1
13	6	2	0.6	0.1	1	0.4132483965380143	1	1	0.1258622999885119	0.4091960585439916	2	1
13	7	2	0.6	0.1	1	0.4719334200312155	1	2	0.2430173000320792	0.4692072118724175	2	0
13	8	2	0.6	0.1	1	0.4168814958388583	1	2	0.006221699994057417	0.4937690722990387	2	0
13	9	2	0.6	0.1	1	0.4033406330483302	1	1	0.0004154000198468566	0.4339963220655262	2	1
13	10	2	0.6	0.1	1	0.4210684334034833	1	2	0.0003974999999627471	0.4318325143510084	2	0
13	11	2	0.6	0.1	1	0.4612769660200352	1	1	0.5113588999956846	0.5998374459248881	1	1
13	12	2	0.6	0.1	1	0.5144283944182236	1	1	0.0004483999800868332	0.4069039174974086	2	1
13	13	2	0.6	0.1	1	0.4713617954904591	1	2	0.3451082999818027	0.433969469208083	2	0
13	14	2	0.6	0.1	1	0.4142447514358648	1	1	0.0004201999981887639	0.5452246125807987	2	1
13	15	2	0.6	0.1	1	0.4035846456033786	1	2	0.2895625999663025	0.5589039881800918	2	0
13	16	2	0.6	0.1	1	0.4698071115731182	1	1	0.1625280999578536	0.4013063456569458	2	1
13	17	2	0.6	0.1	1	0.5711892845279889	1	2	0.4199798000045121	0.5926276898576521	2	0
13	18	2	0.6	0.1	1	0.4470609805142329	1	1	0.160845399950631	0.54181401252414	2	1
13	19	2	0.6	0.1	1	0.4831686515414639	1	2	0.1457190000219271	0.4320034395620438	2	0
13	20	2	0.6	0.1	1	0.4833152548968369	1	1	0.704364400007762	0.54992682302762	1	1
14	1	1	0.5	0.5	1	0.4260043373243033	1	1	0.6173749000299722	0.5413913376496213	2	1
14	2	1	0.5	0.5	1	0.5526526285954658	1	2	0.1236417999607511	0.507505800284305	2	0
14	3	1	0.5	0.5	1	0.4999084687755361	1	2	0.0004030999843962491	0.4416357621244338	2	0
14	4	1	0.5	0.5	1	0.5399634688640956	1	1	0.0003989000106230378	0.4986154498880108	2	1
14	5	1	0.5	0.5	1	0.5175883230402681	1	2	1.378779599966947	0.5205886681394222	2	0
14	6	1	0.5	0.5	1	0.4962949372008921	1	2	0.3392059999750927	0.4720356133602581	2	0
14	7	1	0.5	0.5	1	0.5013972353298587	1	1	0.6117199999862351	0.4700719741175671	2	1
14	8	1	0.5	0.5	1	0.4239113956077226	1	1	0.7771181999705732	0.5831068919770134	2	1
14	9	1	0.5	0.5	1	0.5281539166178084	1	1	0.5245920000015758	0.4672059340740741	1	1
14	10	1	0.5	0.5	1	0.4414193996596388	1	1	0.3383793000248261	0.5383076079171748	2	1
14	11	1	0.5	0.5	1	0.4973713680093707	1	2	0.2540878999861889	0.5869007153987436	2	0
14	12	1	0.5	0.5	1	0.5545140348119241	1	2	0.5554431999917142	0.4642203330638637	1	0
14	13	1	0.5	0.5	1	0.5695078790155216	1	1	0.0003990000113844872	0.5953250870897172	2	1
14	14	1	0.5	0.5	1	0.4648005174441534	1	2	0.000429399951826781	0.4310845871751289	2	0
14	15	1	0.5	0.5	1	0.4474591817981588	1	2	0.5378237999975681	0.4581711559018804	2	0
14	16	1	0.5	0.5	1	0.548669557864631	1	1	0.03450069995597005	0.4467649303991108	1	1
14	17	1	0.5	0.5	1	0.5713267461396243	1	1	0.3465441999724135	0.5608515547430031	2	1
14	18	1	0.5	0.5	1	0.5725891411608025	1	2	0.1908893000218086	0.4403895810028697	2	0
14	19	1	0.5	0.5	1	0.421094367839116	1	1	0.2690716999932192	0.4892764482238091	2	1
14	20	1	0.5	0.5	1	0.4960907059591977	1	2	0.072323200001847	0.5031509065947453	2	0
15	1	2	0.6	0.1	1	0.5229553323995261	1	2	0.3768649999983609	0.5400034711173772	2	0
15	2	2	0.6	0.1	1	0.4001194746226092	1	1	0.3093848000280559	0.4960958648058754	1	1
15	3	2	0.6	0.1	1	0.4289500973440967	1	1	0.3671210999600589	0.4201833518172237	2	1
15	4	2	0.6	0.1	1	0.5837097566624365	1	2	0.09090309997554868	0.5570312180501156	2	0
15	5	2	0.6	0.1	1	0.4742875605487772	1	2	0.001472399977501482	0.5388801802702226	2	0
15	6	2	0.6	0.1	1	0.446349423637981	1	1	0.2536804000264965	0.5019160660995914	1	1
15	7	2	0.6	0.1	1	0.4058917786748815	1	1	0.1067974000470713	0.5552798113786175	1	1
15	8	2	0.6	0.1	1	0.5507941894544287	1	1	0.07296489999862388	0.4709124430132646	1	1
15	9	2	0.6	0.1	1	0.4538885153103097	1	1	0.2575696999556385	0.4766031008973673	1	1
15	10	2	0.6	0.1	1	0.5352918409554179	1	1	0.1513247999828309	0.5124474143181464	2	1
15	11	2	0.6	0.1	1	0.5302904963525703	1	2	0.02200070000253618	0.5428640924597437	1	0
15	12	2	0.6	0.1	1	0.5611616374602021	1	2	0.2793294000439346	0.5462068807062395	2	0
15	13	2	0.6	0.1	1	0.5277801690396949	1	1	0.05916909995721653	0.5145261732597789	1	1
15	14	2	0.6	0.1	1	0.4965964280779316	1	1	0.3146418000105768	0.5011870701626741	1	1
15	15	2	0.6	0.1	1	0.4567519376626852	1	1	0.739964600012172	0.5023928137695829	1	1
15	16	2	0.6	0.1	1	0.4183833785599357	1	1	0.08595630002673715	0.4390758101045744	2	1
15	17	2	0.6	0.1	1	0.4636394443917728	1	1	1.096067100006621	0.5037674661239252	2	1
15	18	2	0.6	0.1	1	0.4819162748117523	1	2	0.0004291999503038824	0.5778039826728092	2	0
15	19	2	0.6	0.1	1	0.5704851839355386	1	2	0.2990107000223361	0.5203340308379087	2	0
15	20	2	0.6	0.1	1	0.4661357307568601	1	1	0.2945162000251003	0.5909776107253762	2	1
16	1	2	0.6	0.1	1	0.4222886136282108	1	1	0.7942764000035822	0.518301956404473	2	1
16	2	2	0.6	0.1	1	0.5383354997199954	1	2	0.04025110002839938	0.4677046345871684	2	0
16	3	2	0.6	0.1	1	0.4196491476036888	1	2	0.06503820000216365	0.5791228409269723	2	0
16	4	2	0.6	0.1	1	0.5249948531307815	1	1	0.1137343000154942	0.4666894637923584	1	1
16	5	2	0.6	0.1	1	0.4688267449693735	1	1	0.2895343999844044	0.4872747258080761	2	1
16	6	2	0.6	0.1	1	0.5236046212874979	1	2	0.0004013000288978219	0.4758713828989449	2	0
16	7	2	0.6	0.1	1	0.4867830683081932	1	1	0.4845814000000246	0.5986648753400936	1	1
16	8	2	0.6	0.1	1	0.4985023990769963	1	1	0.2125125000020489	0.5561589234801344	1	1
16	9	2	0.6	0.1	1	0.4044908827563932	1	1	0.0004300999571569264	0.5226111628286479	1	1
16	10	2	0.6	0.1	1	0.4757111935106465	1	1	0.3769557999912649	0.5471513768458656	1	1
16	11	2	0.6	0.1	1	0.5162179870056886	1	1	0.2004270000034012	0.4190135759063957	1	1
16	12	2	0.6	0.1	1	0.5741755033329971	1	1	0.160149100003764	0.5057155708886265	1	1
16	13	2	0.6	0.1	1	0.5549995930153009	1	1	0.5089868999784812	0.4154346492136748	1	1
16	14	2	0.6	0.1	1	0.408791217231775	1	1	0.1253982000052929	0.5386216306829459	1	1
16	15	2	0.6	0.1	1	0.5609997579999572	1	1	1.068138899980113	0.5624924000221727	1	1
16	16	2	0.6	0.1	1	0.5713699643411907	1	1	0.4800699000479653	0.5058180835236741	1	1
16	17	2	0.6	0.1	1	0.4203833875063105	1	1	0.0797389000072144	0.4942255666552677	2	1
16	18	2	0.6	0.1	1	0.4416587859995533	1	1	0.05325399996945634	0.5263013829257954	2	1
16	19	2	0.6	0.1	1	0.4988542780383991	1	2	0.3243841999792494	0.4993377452040105	2	0
16	20	2	0.6	0.1	1	0.5109621420659664	1	1	0.3262272999854758	0.5567069837480435	1	1
17	1	1	0.5	0.5	1	0.4980605557218449	1	2	1.836826099955942	0.424365139359028	2	0
17	2	1	0.5	0.5	1	0.4820600990349969	1	1	0.2940176999545656	0.5565965322070179	2	1
17	3	1	0.5	0.5	1	0.4461333706069852	1	2	0.04362140002194792	0.4152238880764947	2	0
17	4	1	0.5	0.5	1	0.5995423934709032	1	1	0.4648372000083327	0.5648676559558734	2	1
17	5	1	0.5	0.5	1	0.5666474673276053	1	2	0.4241695000091568	0.5150688266005514	1	0
17	6	1	0.5	0.5	1	0.415870085407249	1	2	0.2487536999979056	0.4123055379435502	1	0
17	7	1	0.5	0.5	1	0.5151286205459522	1	2	0.4771885999944061	0.4968036299015331	2	0
17	8	1	0.5	0.5	1	0.4351277089354471	1	2	0.3156491999980062	0.5293301187360618	2	0
17	9	1	0.5	0.5	1	0.5721358103484022	1	1	0.4045489999698475	0.5224676640367844	2	1
17	10	1	0.5	0.5	1	0.4113577497500192	1	2	0.0004049999988637865	0.5003037649570542	1	0
17	11	1	0.5	0.5	1	0.4436595248569393	1	2	0.2590644999872893	0.521153929085745	1	0
17	12	1	0.5	0.5	1	0.5685589592592823	1	2	0.3737775000045076	0.4114854573677971	2	0
17	13	1	0.5	0.5	1	0.4795271015671458	1	1	0.2281787000247277	0.4640341474799847	1	1
17	14	1	0.5	0.5	1	0.5859696263119523	1	1	0.3876063999487087	0.5030396367643487	1	1
17	15	1	0.5	0.5	1	0.5308987370380482	1	1	0.3362452000146732	0.5723221164877192	2	1
17	16	1	0.5	0.5	1	0.5179187493635895	1	2	0.07529079995583743	0.4537636542745138	2	0
17	17	1	0.5	0.5	1	0.4675491039165607	1	1	0.3070106999948621	0.5528005706824288	1	1
17	18	1	0.5	0.5	1	0.4509108316447051	1	1	0.2348297000280581	0.5579898717362888	2	1
17	19	1	0.5	0.5	1	0.4997273691401776	1	2	0.0004289000062271953	0.443025630577485	1	0
17	20	1	0.5	0.5	1	0.51566507299459	1	2	0.4130505999783054	0.4581344422991849	1	0
18	1	1	0.5	0.5	1	0.4296600948770172	1	1	1.274044799967669	0.5382585294364317	1	1
18	2	1	0.5	0.5	1	0.4563176782832482	1	1	0.483807299984619	0.5617259797530638	1	1
18	3	1	0.5	0.5	1	0.417233873358438	1	1	0.287644200026989	0.4685145568437235	2	1
18	4	1	0.5	0.5	1	0.5659960031638817	1	2	0.8199276000377722	0.5346963059228915	2	0
18	5	1	0.5	0.5	1	0.5306678164161674	1	1	0.3799612000002526	0.4746816234258676	1	1
18	6	1	0.5	0.5	1	0.5427836230259595	1	1	0.3181628999882378	0.4102209527265993	1	1
18	7	1	0.5	0.5	1	0.472086767557806	1	1	0.2260810000007041	0.5716689549689637	2	1
18	8	1	0.5	0.5	1	0.5072668907805362	1	2	0.3703900999971665	0.4408490035793475	2	0
18	9	1	0.5	0.5	1	0.5660540346576166	1	1	0.0004083000239916146	0.5288277575010946	2	1
18	10	1	0.5	0.5	1	0.4994896083113927	1	1	0.726774699985981	0.58931513516249	1	1
18	11	1	0.5	0.5	1	0.5777399925204116	1	1	0.4171700000297278	0.5411408843782162	1	1
18	12	1	0.5	0.5	1	0.4807296390723741	1	1	0.4056233000010252	0.5527444240152498	2	1
18	13	1	0.5	0.5	1	0.4308417627281559	1	2	0.2840914999833331	0.5707378490913063	1	0
18	14	1	0.5	0.5	1	0.4897003689408872	1	2	0.001470100018195808	0.545468488246558	1	0
18	15	1	0.5	0.5	1	0.5030782672380772	1	2	0.2946332000428811	0.5327103343750925	1	0
18	16	1	0.5	0.5	1	0.5173404555692476	1	2	0.4455971000134014	0.5499110850150726	2	0
18	17	1	0.5	0.5	1	0.5157879540684011	1	1	0.05757790000643581	0.5794676052415761	1	1
18	18	1	0.5	0.5	1	0.5441037128956235	1	2	0.5982925999560393	0.5557304832847356	2	0
18	19	1	0.5	0.5	1	0.5507521705677828	1	1	0.6404368000221439	0.5807382626991962	1	1
18	20	1	0.5	0.5	1	0.4954610585521248	1	1	0.0004428999964147806	0.4557699132808005	1	1
19	1	2	0.1	0.6	2	0.4028437802291142	1	2	0.8619208000018261	0.5398155338549023	2	1
19	2	2	0.1	0.6	2	0.5669643783613926	1	1	0.5015839000116102	0.5929912607708063	2	0
19	3	2	0.1	0.6	2	0.5167374795092013	1	1	0.2789568000007421	0.5502983405880972	2	0
19	4	2	0.1	0.6	2	0.5761200061646984	1	2	0.3652566999662668	0.5263657123223089	1	1
19	5	2	0.1	0.6	2	0.5415622518931609	1	2	0.2694810999673791	0.4367178930637013	1	1
19	6	2	0.1	0.6	2	0.5421492717098729	1	2	0.2599218999966979	0.4354590070788725	1	1
19	7	2	0.1	0.6	2	0.4171593554734947	1	2	0.2717038000118919	0.5742757167503648	1	1
19	8	2	0.1	0.6	2	0.4537685435376111	1	2	0.5942002999945544	0.5454908498153817	2	1
19	9	2	0.1	0.6	2	0.4908277836950978	1	1	0.3514905999763869	0.4188417055473725	2	0
19	10	2	0.1	0.6	2	0.5179131571873282	1	2	0.385905199975241	0.4697229195865347	1	1
19	11	2	0.1	0.6	2	0.5468062242097058	1	2	0.2618113999487832	0.5179263302053787	2	1
19	12	2	0.1	0.6	2	0.5595692176724245	1	1	0.2039909000159241	0.4943469358403665	2	0
19	13	2	0.1	0.6	2	0.5733684094483918	1	2	0.6598381000221707	0.5076317773112257	2	1
19	14	2	0.1	0.6	2	0.4211083787289445	1	1	0.529603999981191	0.5695502256097501	2	0
19	15	2	0.1	0.6	2	0.5700323783722175	1	2	0.3227082999655977	0.436566454002987	1	1
19	16	2	0.1	0.6	2	0.4294774760003485	1	2	0.439204599999357	0.4392557634506302	2	1
19	17	2	0.1	0.6	2	0.5678878823989447	1	1	0.2460331000038423	0.4961405049011178	2	0
19	18	2	0.1	0.6	2	0.4138827489182278	1	2	0.6869381000287831	0.5176507059896636	1	1
19	19	2	0.1	0.6	2	0.5525227805090409	1	2	0.1451289000106044	0.5286405738170061	1	1
19	20	2	0.1	0.6	2	0.464989148846161	1	2	0.3121309000416659	0.4566042430085387	1	1
20	1	1	0.5	0.5	1	0.5198228966852063	1	2	0.7153220000327565	0.4903832492591966	1	0
20	2	1	0.5	0.5	1	0.5107076066092944	1	2	0.05253799998899922	0.5009387025676045	1	0
20	3	1	0.5	0.5	1	0.4076462657886931	1	2	0.001474799995776266	0.4044795825281868	2	0
20	4	1	0.5	0.5	1	0.5336701509201043	1	2	0.0004008000250905752	0.4434535341260725	2	0
20	5	1	0.5	0.5	1	0.4711153462993138	1	1	0.001471799972932786	0.4718670027688499	1	1
20	6	1	0.5	0.5	1	0.4454357998763476	1	1	0.5814709999831393	0.4708866367131774	1	1
20	7	1	0.5	0.5	1	0.5465047518982131	1	1	0.4413564000278711	0.5843209159645866	1	1
20	8	1	0.5	0.5	1	0.4190978734476795	1	1	0.0004041999927721918	0.4821319826131101	1	1
20	9	1	0.5	0.5	1	0.4040415922838382	1	1	0.2710548999602906	0.4281158171321094	2	1
20	10	1	0.5	0.5	1	0.4893496977849406	1	2	0.3982836999930441	0.574002278601391	1	0
20	11	1	0.5	0.5	1	0.5014081613037912	1	2	0.1335119999712333	0.5714804636063174	2	0
20	12	1	0.5	0.5	1	0.4297345584974187	1	2	0.0004266999894753098	0.4559293189828667	2	0
20	13	1	0.5	0.5	1	0.4522195300198685	1	1	0.0004994000191800296	0.5112990280549453	1	1
20	14	1	0.5	0.5	1	0.5079280982359357	1	1	0.0004028999828733504	0.4829939593767574	2	1
20	15	1	0.5	0.5	1	0.5548293998857592	1	2	0.3419733000337146	0.4045284914993325	2	0
20	16	1	0.5	0.5	1	0.577597778442611	1	1	0.3362184999859892	0.4974412442463915	1	1
20	17	1	0.5	0.5	1	0.5823863867716023	1	1	0.2860810999991372	0.5500888458165812	1	1
20	18	1	0.5	0.5	1	0.5897343273488372	1	1	0.4309734999551438	0.5989525370905886	1	1
20	19	1	0.5	0.5	1	0.4881542257026065	1	1	0.4250849999953061	0.5754919985309163	1	1
20	20	1	0.5	0.5	1	0.4452125766088428	1	1	0.7096341999713331	0.5339495825824732	2	1
