blockNum	trialNum	condition	pWin1	pWin2	optimalResponse	preStimulusDelay	responded	response	rt	preFeedbackDelay	outcome	optimal
1	1	2	0.1	0.6	2	0.5282069100964377	1	1	1.507329799933359	0.4024758123627266	2	0
1	2	2	0.1	0.6	2	0.5469568802724526	1	2	1.650392899988219	0.4091657983704484	2	1
1	3	2	0.1	0.6	2	0.5768069596859374	1	1	1.361233599949628	0.4134985872403523	2	0
1	4	2	0.1	0.6	2	0.5970621266733634	1	2	1.902318499982357	0.4846173902006733	2	1
1	5	2	0.1	0.6	2	0.5505274446902236	1	2	1.634217499988154	0.5979719978345228	1	1
1	6	2	0.1	0.6	2	0.5840393883266657	1	2	1.539189399918541	0.5854783210622927	2	1
1	7	2	0.1	0.6	2	0.4156445489363643	1	1	1.506678200094029	0.5921434188711587	2	0
1	8	2	0.1	0.6	2	0.502367580348454	1	2	1.639367600204423	0.4676176220679386	2	1
1	9	2	0.1	0.6	2	0.5358692530281345	0	n/a	n/a	n/a	n/a	n/a
1	10	2	0.1	0.6	2	0.5646457437383019	1	1	1.826893900055438	0.5136301003501492	2	0
1	11	2	0.1	0.6	2	0.4437050173323234	1	2	0.7939734000246972	0.4901446296206165	1	1
1	12	2	0.1	0.6	2	0.5383754850285474	1	2	0.6251256000250578	0.4578752822102409	1	1
1	13	2	0.1	0.6	2	0.4556281845224613	1	2	0.5403982999268919	0.4836987333053726	2	1
1	14	2	0.1	0.6	2	0.4076909209522881	1	2	0.6464709001593292	0.5536257186713869	1	1
1	15	2	0.1	0.6	2	0.4799464107030575	1	1	0.6075420998968184	0.4945802538182725	2	0
1	16	2	0.1	0.6	2	0.5445723391269071	1	2	0.5277120000682771	0.5303423653170098	1	1
1	17	2	0.1	0.6	2	0.4312200231043485	1	2	0.4481478999368846	0.4833274327379166	1	1
1	18	2	0.1	0.6	2	0.523957226488027	1	2	0.4786027001682669	0.5292829659786167	1	1
1	19	2	0.1	0.6	2	0.4811153768913984	1	2	0.2908475000876933	0.4575324350899393	2	1
1	20	2	0.1	0.6	2	0.53668702658065	1	2	0.294347699964419	0.5345634546404786	1	1
2	1	2	0.1	0.6	2	0.5323664997941313	1	1	0.7091944999992847	0.5661645714053342	2	0
2	2	2	0.1	0.6	2	0.5117065420797635	1	2	0.4740623999387026	0.5801443478094479	2	1
2	3	2	0.1	0.6	2	0.5906974189753788	1	1	0.3170838998630643	0.4921838834871832	2	0
2	4	2	0.1	0.6	2	0.5468151201617749	1	1	0.3126540998928249	0.5774120637593144	2	0
2	5	2	0.1	0.6	2	0.4132186727378822	1	1	0.2436423997860402	0.4546617212309885	2	0
2	6	2	0.1	0.6	2	0.5809556772158634	1	2	0.2920306997839361	0.5309805231552883	1	1
2	7	2	0.1	0.6	2	0.5175688558337741	1	2	0.3060262999497354	0.4547464651158594	2	1
2	8	2	0.1	0.6	2	0.4865646672363547	1	2	0.2882169999647886	0.5508106969306116	1	1
2	9	2	0.1	0.6	2	0.4165854502267513	1	2	0.2919608999509364	0.4957725786250862	2	1
2	10	2	0.1	0.6	2	0.4438333473631066	1	1	0.6151964999735355	0.4550112055994565	2	0
2	11	2	0.1	0.6	2	0.5115338886622427	1	2	0.3015933001879603	0.4010190725778973	2	1
2	12	2	0.1	0.6	2	0.5347922954329342	1	2	0.2525545000098646	0.4398215049202169	2	1
2	13	2	0.1	0.6	2	0.5110138872038948	1	2	0.3046965000685304	0.4133982489387516	2	1
2	14	2	0.1	0.6	2	0.4356468551510799	1	2	0.2699563999194652	0.5838760139457074	2	1
2	15	2	0.1	0.6	2	0.5427684708408307	1	1	0.3451811999548227	0.4002296555980389	2	0
2	16	2	0.1	0.6	2	0.5103360876048412	1	1	0.3323480999097228	0.5034074743946652	2	0
2	17	2	0.1	0.6	2	0.4254382197620856	1	1	0.3239579999353737	0.5020962734179674	2	0
2	18	2	0.1	0.6	2	0.5430852605131281	1	1	0.292424299987033	0.491529058367717	2	0
2	19	2	0.1	0.6	2	0.4538926970188487	1	2	0.2633356999140233	0.5537659894417593	1	1
2	20	2	0.1	0.6	2	0.4835087209906491	1	2	0.3107639001682401	0.5848017318590359	2	1
3	1	1	0.5	0.5	1	0.5082080944221621	1	2	0.6464378000237048	0.4373906792413947	1	0
3	2	1	0.5	0.5	1	0.5246491019597807	1	2	0.2781637001316994	0.5002225132623221	2	0
3	3	1	0.5	0.5	1	0.4559173609541404	1	2	0.328916999977082	0.4364580045965142	2	0
3	4	1	0.5	0.5	1	0.4372631276435039	1	1	0.3670868000481278	0.5998556337219483	2	1
3	5	1	0.5	0.5	1	0.5000478201004194	1	1	0.2116976000834256	0.4074278172198582	1	1
3	6	1	0.5	0.5	1	0.4283074007795098	1	1	0.2872836000751704	0.4486379758327003	1	1
3	7	1	0.5	0.5	1	0.5467349019625326	1	1	0.1725951000116765	0.4190840403729832	2	1
3	8	1	0.5	0.5	1	0.4700849416168115	1	1	0.245654399972409	0.5782750652530597	2	1
3	9	1	0.5	0.5	1	0.5833908151852847	1	1	0.3634513998404145	0.595725118357016	2	1
3	10	1	0.5	0.5	1	0.4148467534028498	1	2	0.1628912000451237	0.419394976875176	2	0
3	11	1	0.5	0.5	1	0.5911012454306152	1	2	0.2980935999657959	0.5839448690579664	1	0
3	12	1	0.5	0.5	1	0.5741937012231494	1	1	0.3312319000251591	0.4784246997988714	2	1
3	13	1	0.5	0.5	1	0.5424440062961051	1	2	0.1174504000227898	0.5795795498964442	2	0
3	14	1	0.5	0.5	1	0.450636261716731	1	2	0.2244908001739532	0.5972776120185171	1	0
3	15	1	0.5	0.5	1	0.58113271988866	1	2	0.06969240005128086	0.4903741230975279	2	0
3	16	1	0.5	0.5	1	0.4918669076725997	1	1	0.2695925999432802	0.4796606865266184	1	1
3	17	1	0.5	0.5	1	0.4439199298837315	1	2	0.3625354999676347	0.4538394798343326	2	0
3	18	1	0.5	0.5	1	0.4849469503116096	1	1	0.2811606000177562	0.4019389724864771	1	1
3	19	1	0.5	0.5	1	0.5262117653383429	1	2	0.2862132000736892	0.5304380040983703	2	0
3	20	1	0.5	0.5	1	0.4951986514765768	1	1	0.3385391999036074	0.5591037267427076	1	1
4	1	1	0.5	0.5	1	0.5576513171475532	1	2	0.609643500065431	0.5444635799484262	2	0
4	2	1	0.5	0.5	1	0.5147131457211391	1	2	0.4542594999074936	0.54101840998037	2	0
4	3	1	0.5	0.5	1	0.5937989622823585	1	2	0.3061081001069397	0.5712798182044305	2	0
4	4	1	0.5	0.5	1	0.4877932492269886	1	1	0.3814017998520285	0.5788232996652762	2	1
4	5	1	0.5	0.5	1	0.5216337967275424	1	1	0.3082940001040697	0.4486482402727592	2	1
4	6	1	0.5	0.5	1	0.4088053713510939	1	2	0.3367651000153273	0.4159151119866028	2	0
4	7	1	0.5	0.5	1	0.4250399507365332	1	2	0.4159123999997973	0.4592669435685819	2	0
4	8	1	0.5	0.5	1	0.534134359862362	1	2	0.3702068999409676	0.5421127803640235	2	0
4	9	1	0.5	0.5	1	0.5259470637078774	1	1	0.3394654998555779	0.4025493848227995	1	1
4	10	1	0.5	0.5	1	0.4176441963430411	1	1	0.5377076000440866	0.5717813657234558	2	1
4	11	1	0.5	0.5	1	0.5904568576682002	1	1	0.3701128999236971	0.5776128398185075	2	1
4	12	1	0.5	0.5	1	0.4217390470864886	1	1	0.2152974000200629	0.5147615390385928	2	1
4	13	1	0.5	0.5	1	0.4210463041308001	1	2	0.4089844000991434	0.5764576575446722	1	0
4	14	1	0.5	0.5	1	0.4753664856537804	1	2	0.2940614998806268	0.5966647434388405	2	0
4	15	1	0.5	0.5	1	0.5629217285488211	1	1	0.348483300069347	0.5303732571957924	1	1
4	16	1	0.5	0.5	1	0.5439848061591021	1	1	0.4328635998535901	0.5573699632814302	2	1
4	17	1	0.5	0.5	1	0.5586289466493788	1	1	0.4207923000212759	0.4545982878512798	2	1
4	18	1	0.5	0.5	1	0.4837216057779485	1	1	0.4683054001070559	0.5460717511913821	2	1
4	19	1	0.5	0.5	1	0.5519948793135371	1	2	0.2381442999467254	0.5097941705568941	2	0
4	20	1	0.5	0.5	1	0.5262651394363607	1	2	0.5093811999540776	0.510088381481149	2	0
5	1	2	0.1	0.6	2	0.436042375384902	1	1	0.9579612999223173	0.5327746073294369	2	0
5	2	2	0.1	0.6	2	0.5072852229942789	1	2	0.4000403999816626	0.5918633433858147	1	1
5	3	2	0.1	0.6	2	0.4822038142795581	1	2	0.2926835000980645	0.4832427085883175	2	1
5	4	2	0.1	0.6	2	0.5279472837342074	1	2	0.4285464000422508	0.4796311654195186	1	1
5	5	2	0.1	0.6	2	0.4345751449832574	1	2	0.3717742001172155	0.4089741161222672	1	1
5	6	2	0.1	0.6	2	0.4998672917877749	1	2	0.3477266998961568	0.4207928128536241	1	1
5	7	2	0.1	0.6	2	0.5014963241056792	1	2	0.280948500148952	0.4203118538705913	2	1
5	8	2	0.1	0.6	2	0.5808029549301488	1	2	0.3614191000815481	0.4278227849932852	1	1
5	9	2	0.1	0.6	2	0.5639956709903752	1	2	0.2562847000081092	0.4470761009665084	2	1
5	10	2	0.1	0.6	2	0.562057084644785	1	2	0.240777000086382	0.494968204140066	1	1
5	11	2	0.1	0.6	2	0.5421896733637652	1	2	0.3302713001612574	0.4983901882155363	1	1
5	12	2	0.1	0.6	2	0.5675734274170043	1	2	0.3136907001025975	0.4061994080319427	1	1
5	13	2	0.1	0.6	2	0.5772501999402339	1	2	0.2464564999099821	0.5959996584882429	2	1
5	14	2	0.1	0.6	2	0.4557795877151778	1	2	0.295290500158444	0.5014525654351336	1	1
5	15	2	0.1	0.6	2	0.586668785606244	1	2	0.3171115000732243	0.4947778144203832	2	1
5	16	2	0.1	0.6	2	0.5309728938275632	1	2	0.2686256000306457	0.5475905571442742	1	1
5	17	2	0.1	0.6	2	0.5855787215728108	1	2	0.2881507000420243	0.4565847165630495	2	1
5	18	2	0.1	0.6	2	0.5213804547887958	1	2	0.2895428000483662	0.4709976083048812	1	1
5	19	2	0.1	0.6	2	0.4660655777323909	1	1	0.2514109001494944	0.5592365445230412	2	0
5	20	2	0.1	0.6	2	0.4612618605028915	1	2	0.0004061001818627119	0.5312307905536677	1	1
6	1	2	0.1	0.6	2	0.4575612698003655	1	2	0.784150600200519	0.4208056137607404	2	1
6	2	2	0.1	0.6	2	0.5200497576103436	1	1	0.2999211999122053	0.4079149841272668	2	0
6	3	2	0.1	0.6	2	0.5380650903146814	1	1	0.2530913001392037	0.5496233329369155	2	0
6	4	2	0.1	0.6	2	0.531248926981585	1	2	0.2216085998807102	0.5126820248115865	1	1
6	5	2	0.1	0.6	2	0.5562889622515318	1	2	0.2540849999058992	0.5494248363531478	1	1
6	6	2	0.1	0.6	2	0.4570277514570256	1	2	0.3728755000047386	0.4213863255269116	2	1
6	7	2	0.1	0.6	2	0.567652089752526	1	2	0.4154992999974638	0.4236763446792864	1	1
6	8	2	0.1	0.6	2	0.4296393030836642	1	2	0.419288800098002	0.5968881259468295	1	1
6	9	2	0.1	0.6	2	0.4507405022665555	1	2	0.451173200039193	0.4974506649988714	2	1
6	10	2	0.1	0.6	2	0.5239643506082288	1	2	0.4588413999881595	0.4251879966307085	2	1
6	11	2	0.1	0.6	2	0.42099990695137	1	2	0.4916431000456214	0.4133931456208845	2	1
6	12	2	0.1	0.6	2	0.4144250909362812	1	2	0.2762329999823123	0.5971464312487599	1	1
6	13	2	0.1	0.6	2	0.4073005717943521	1	2	0.2970898000057787	0.4152389229475877	1	1
6	14	2	0.1	0.6	2	0.5801943053168768	1	2	0.3411185999866575	0.4909502673049289	1	1
6	15	2	0.1	0.6	2	0.456042163347385	1	2	0.5438945000059903	0.4704760477305501	2	1
6	16	2	0.1	0.6	2	0.5006884939171892	1	2	0.371088600018993	0.4459523473868831	2	1
6	17	2	0.1	0.6	2	0.5094244398352219	1	2	0.3269837000407279	0.4076975852882607	1	1
6	18	2	0.1	0.6	2	0.4098841067417596	1	2	0.4143415000289679	0.5268226193755727	1	1
6	19	2	0.1	0.6	2	0.5016211542997535	1	2	0.4071254001464695	0.5976453710650673	2	1
6	20	2	0.1	0.6	2	0.574421074805369	1	2	0.6839078001212329	0.5941885673604728	2	1
7	1	1	0.5	0.5	1	0.4671234089226761	1	2	0.8411974001210183	0.5760237387935118	1	0
7	2	1	0.5	0.5	1	0.4838934025559876	1	2	0.3801404000259936	0.4597502310149899	2	0
7	3	1	0.5	0.5	1	0.403349777812687	1	2	0.4546338999643922	0.4243414562872226	1	0
7	4	1	0.5	0.5	1	0.4165332382548179	1	2	0.4401261999737471	0.4220803735039599	1	0
7	5	1	0.5	0.5	1	0.4935868680121519	1	2	0.340547899948433	0.4177965755010965	2	0
7	6	1	0.5	0.5	1	0.4852640127913821	1	2	0.3880352000705898	0.4677743736762405	2	0
7	7	1	0.5	0.5	1	0.4486761376074644	1	2	0.4277937000151724	0.4580792639994148	2	0
7	8	1	0.5	0.5	1	0.4104209411729251	1	1	0.3290738000068814	0.561532964126955	1	1
7	9	1	0.5	0.5	1	0.5160850011512981	1	1	0.5249746998306364	0.5036423403320868	1	1
7	10	1	0.5	0.5	1	0.5691440609383766	1	1	0.623165600001812	0.5701396805375857	2	1
7	11	1	0.5	0.5	1	0.4385973210052349	1	1	0.5368166000116616	0.55079486374567	1	1
7	12	1	0.5	0.5	1	0.5447598159562317	1	1	0.4289868001360446	0.5749400394779863	1	1
7	13	1	0.5	0.5	1	0.4851284315877148	1	1	0.2573428000323474	0.5596279255374247	2	1
7	14	1	0.5	0.5	1	0.4040257297829664	1	1	0.3274279001634568	0.491663320149644	1	1
7	15	1	0.5	0.5	1	0.4318257583598581	1	1	0.3041852999012917	0.4481493233071036	2	1
7	16	1	0.5	0.5	1	0.4969617138102661	1	1	0.2446554000489414	0.5498100333879201	2	1
7	17	1	0.5	0.5	1	0.5183948077361666	1	1	0.3249418998602778	0.4052862347783553	1	1
7	18	1	0.5	0.5	1	0.5012604380527972	1	1	0.5098339000251144	0.4672965471455052	1	1
7	19	1	0.5	0.5	1	0.5787991412210539	1	1	0.2702082998584956	0.4863107164985557	1	1
7	20	1	0.5	0.5	1	0.5159476526810279	1	1	0.3282052001450211	0.4984324055383487	1	1
8	1	1	0.5	0.5	1	0.5990163729578549	1	2	0.9579786001704633	0.5002793471225999	1	0
8	2	1	0.5	0.5	1	0.4764227709613035	1	1	0.3215820000041276	0.415605249995913	2	1
8	3	1	0.5	0.5	1	0.4028234420726408	1	2	0.3307739999145269	0.5093928035147807	1	0
8	4	1	0.5	0.5	1	0.5082281343347603	1	2	0.3085884000174701	0.5022236711378344	2	0
8	5	1	0.5	0.5	1	0.4548965999901181	1	2	0.3352984001394361	0.5497290745449913	2	0
8	6	1	0.5	0.5	1	0.4419488126819078	1	2	0.2440241000149399	0.4703494107646168	2	0
8	7	1	0.5	0.5	1	0.4097757961360317	1	1	0.3199424999766052	0.5946717746860402	1	1
8	8	1	0.5	0.5	1	0.5000923302093389	1	1	0.3509134999476373	0.4773526088697594	2	1
8	9	1	0.5	0.5	1	0.4910777337327422	1	2	0.4947436999063939	0.4051283240464439	1	0
8	10	1	0.5	0.5	1	0.5607066005214981	1	2	0.4838811000809073	0.4399334250880343	1	0
8	11	1	0.5	0.5	1	0.5287261954769154	1	2	0.3478339000139385	0.4025313785932881	1	0
8	12	1	0.5	0.5	1	0.5850314635360849	1	2	0.4416592998895794	0.4768153600380843	1	0
8	13	1	0.5	0.5	1	0.5446637551796992	1	1	0.4489173002075404	0.4960467236422396	2	1
8	14	1	0.5	0.5	1	0.5630257916506165	1	2	0.2606017999351025	0.4002647075899718	2	0
8	15	1	0.5	0.5	1	0.5102869010915063	1	2	0.2475721999071538	0.5658802709141697	2	0
8	16	1	0.5	0.5	1	0.5504742065424786	1	1	1.576672400115058	0.5043854310504318	2	1
8	17	1	0.5	0.5	1	0.4256193258527637	1	2	0.2574330999050289	0.4386111261033843	1	0
8	18	1	0.5	0.5	1	0.4894829983266397	1	2	0.2624368001706898	0.4897537563646329	1	0
8	19	1	0.5	0.5	1	0.4420658451309546	1	2	0.3677240000106394	0.4594956942600256	2	0
8	20	1	0.5	0.5	1	0.4623215674508743	1	2	0.3485820998903364	0.4434168000870081	2	0
9	1	2	0.1	0.6	2	0.4394995669786708	1	1	0.7862612002063543	0.5448488456855812	2	0
9	2	2	0.1	0.6	2	0.450494264349699	1	1	0.3463703999295831	0.5432947785236336	2	0
9	3	2	0.1	0.6	2	0.4544490427896186	1	1	0.323657900094986	0.4268679641262823	2	0
9	4	2	0.1	0.6	2	0.4029318787776988	1	2	0.4422714000102133	0.5827187014204909	1	1
9	5	2	0.1	0.6	2	0.4762534415301844	1	2	0.2865385999903083	0.5657857732349716	1	1
9	6	2	0.1	0.6	2	0.5591846294111364	1	2	0.4086110999342054	0.4870959765458358	2	1
9	7	2	0.1	0.6	2	0.451005644794255	1	2	0.4077270000707358	0.4836525758108274	1	1
9	8	2	0.1	0.6	2	0.428133398382738	1	2	0.2973797000013292	0.4330553447137006	1	1
9	9	2	0.1	0.6	2	0.518810103566573	1	2	0.4840700998902321	0.4587129095811661	1	1
9	10	2	0.1	0.6	2	0.5145369263359678	1	2	0.2773092000279576	0.5830944481257108	2	1
9	11	2	0.1	0.6	2	0.5880052243448191	1	1	0.2798671999480575	0.5317308390103712	2	0
9	12	2	0.1	0.6	2	0.5010887415812891	1	2	0.4229294001124799	0.445211196144541	2	1
9	13	2	0.1	0.6	2	0.5115377439543985	1	1	0.4388723999727517	0.5345286866449556	2	0
9	14	2	0.1	0.6	2	0.5739865881627366	1	2	0.3728802998084575	0.4779999054508975	2	1
9	15	2	0.1	0.6	2	0.4513862528960578	1	2	0.3225535000674427	0.4642730409057895	1	1
9	16	2	0.1	0.6	2	0.4833721096466826	1	2	0.4634446001145989	0.5332356995278789	1	1
9	17	2	0.1	0.6	2	0.5734104323607299	1	2	0.2750258001033217	0.4602603755465686	2	1
9	18	2	0.1	0.6	2	0.4243541440079158	1	2	0.3636479999404401	0.4735643319705504	1	1
9	19	2	0.1	0.6	2	0.5386415768526339	1	2	0.3875259000342339	0.579096163546554	1	1
9	20	2	0.1	0.6	2	0.5565468423904363	1	2	0.2959631998091936	0.5657790196860375	1	1
10	1	2	0.6	0.1	1	0.5371519609704998	1	1	0.6186297999229282	0.4097939864695916	2	1
10	2	2	0.6	0.1	1	0.427910853925113	1	2	0.540157200070098	0.4753833113619537	2	0
10	3	2	0.6	0.1	1	0.5664119027108663	1	1	0.3885542000643909	0.5544974576879846	1	1
10	4	2	0.6	0.1	1	0.4684567552251429	1	1	0.3161530001088977	0.4259810053888617	2	1
10	5	2	0.6	0.1	1	0.4610903410964589	1	1	0.362939199898392	0.520791775865704	1	1
10	6	2	0.6	0.1	1	0.4021349269637693	1	1	0.3587430000770837	0.4061495672743107	1	1
10	7	2	0.6	0.1	1	0.4047417809381383	1	1	0.4998689999338239	0.551643510971691	2	1
10	8	2	0.6	0.1	1	0.5733018328746343	1	1	0.27392220008187	0.4368962189096004	2	1
10	9	2	0.6	0.1	1	0.4768999359484398	1	1	0.4486573999747634	0.4169269691461654	2	1
10	10	2	0.6	0.1	1	0.4224960747552986	1	1	0.9627061001956463	0.4807602672766027	1	1
10	11	2	0.6	0.1	1	0.5669439826754965	1	1	0.3737848999444395	0.4532966096012538	1	1
10	12	2	0.6	0.1	1	0.4468897893142032	1	1	0.4872675000224262	0.5853496918770151	1	1
10	13	2	0.6	0.1	1	0.4702055379603542	1	1	0.3463085000403225	0.5687034651339392	1	1
10	14	2	0.6	0.1	1	0.4275116104715224	1	1	0.4220569999888539	0.4776190212820897	2	1
10	15	2	0.6	0.1	1	0.5728148378549773	1	1	0.2618729001842439	0.550343879071169	1	1
10	16	2	0.6	0.1	1	0.4119844120333741	1	1	0.3310730999801308	0.4740318118413848	1	1
10	17	2	0.6	0.1	1	0.5582285501956817	1	1	0.281587699893862	0.4878093294254771	1	1
10	18	2	0.6	0.1	1	0.4776566913959479	1	1	0.3720627999864519	0.5908216133641367	1	1
10	19	2	0.6	0.1	1	0.5024871363939565	1	1	0.3859604999888688	0.4683455877396597	1	1
10	20	2	0.6	0.1	1	0.4733267919323534	1	1	0.3068003000225872	0.4588403021990851	1	1
11	1	1	0.5	0.5	1	0.4581999247595272	1	1	0.5870776001829654	0.558920780316241	1	1
11	2	1	0.5	0.5	1	0.4429081017554233	1	1	0.3162475998979062	0.5571684548372841	2	1
11	3	1	0.5	0.5	1	0.5693472731104785	1	1	0.3250663001090288	0.5010388013415832	2	1
11	4	1	0.5	0.5	1	0.4346029659291951	1	1	0.4002304999157786	0.4969668741859197	2	1
11	5	1	0.5	0.5	1	0.4842511026940186	1	2	0.4419732999522239	0.4151613072363959	1	0
11	6	1	0.5	0.5	1	0.4512226525233104	1	2	0.3703983000013977	0.5295690182248102	1	0
11	7	1	0.5	0.5	1	0.5329829677905279	1	2	0.5072886999696493	0.4947972979206877	1	0
11	8	1	0.5	0.5	1	0.491039033393936	1	2	0.6319432999007404	0.4846203047535034	1	0
11	9	1	0.5	0.5	1	0.5498468679282273	1	2	0.2657395999412984	0.5403798321897836	2	0
11	10	1	0.5	0.5	1	0.4218340699629206	1	2	0.3003090999554843	0.4131803199833833	1	0
11	11	1	0.5	0.5	1	0.447843303467	1	2	0.3279560999944806	0.5816479284883489	1	0
11	12	1	0.5	0.5	1	0.4149274143604578	1	2	0.4640820000786334	0.5089979178939127	2	0
11	13	1	0.5	0.5	1	0.4008300939482629	1	2	0.3124431001488119	0.5113323638572032	2	0
11	14	1	0.5	0.5	1	0.5029183583630521	1	1	0.3996192999184132	0.5596452217982948	2	1
11	15	1	0.5	0.5	1	0.4513063150600274	1	2	0.3632131998892874	0.4863106879927288	1	0
11	16	1	0.5	0.5	1	0.5990079557019695	1	2	0.2942008001264185	0.4736549174757091	2	0
11	17	1	0.5	0.5	1	0.5787501948253612	1	2	0.2633024000097066	0.4284452409137378	1	0
11	18	1	0.5	0.5	1	0.5785920841487833	1	2	0.3695821000728756	0.4320027177885143	1	0
11	19	1	0.5	0.5	1	0.4284826649624388	1	2	0.3911423000972718	0.5174604958245137	2	0
11	20	1	0.5	0.5	1	0.4498569969596209	1	2	0.3276358000002801	0.5177917003246295	2	0
12	1	1	0.5	0.5	1	0.450713245527285	1	1	0.7831422002054751	0.5402066803620542	1	1
12	2	1	0.5	0.5	1	0.5281404077135204	1	1	0.309664900181815	0.4094999976754066	1	1
12	3	1	0.5	0.5	1	0.5932936374466428	1	1	0.429546499857679	0.4612373325685737	2	1
12	4	1	0.5	0.5	1	0.4034917068849297	1	1	0.3990847000386566	0.5080852379691976	1	1
12	5	1	0.5	0.5	1	0.4744542461841074	1	1	0.3298665001057088	0.406622444286082	1	1
12	6	1	0.5	0.5	1	0.4753698585482555	1	1	0.5515252000186592	0.573775922152415	2	1
12	7	1	0.5	0.5	1	0.5346607844522604	1	1	0.3428338000085205	0.5282915701706132	1	1
12	8	1	0.5	0.5	1	0.4432004697430987	1	1	0.3723337999545038	0.5761215977224251	1	1
12	9	1	0.5	0.5	1	0.5664575108647011	1	1	0.2825296998489648	0.4378551480924635	1	1
12	10	1	0.5	0.5	1	0.4791622691440842	1	1	0.472217199858278	0.5423762083775822	2	1
12	11	1	0.5	0.5	1	0.5617544309300615	1	1	0.4330072999000549	0.57622394049391	2	1
12	12	1	0.5	0.5	1	0.4454854102698471	1	2	0.3152892000507563	0.4812498132763861	2	0
12	13	1	0.5	0.5	1	0.4940271119529923	1	1	0.2943136000540107	0.4386072673924237	1	1
12	14	1	0.5	0.5	1	0.4061190471682002	1	1	0.4054469999391586	0.5893711283260505	1	1
12	15	1	0.5	0.5	1	0.4429639951074921	1	1	0.2526781999040395	0.5638819435245817	1	1
12	16	1	0.5	0.5	1	0.4328561910454197	1	1	0.3501222000923008	0.49706662877452	1	1
12	17	1	0.5	0.5	1	0.427866033782094	1	1	0.3230320001021028	0.5080585485613452	2	1
12	18	1	0.5	0.5	1	0.4204726500508393	1	1	0.2915190001949668	0.4801211016466473	1	1
12	19	1	0.5	0.5	1	0.4288186257407792	1	1	0.4041271000169218	0.5700835730204389	1	1
12	20	1	0.5	0.5	1	0.5502211178503288	1	1	0.2669242001138628	0.5538830653439097	2	1
13	1	2	0.6	0.1	1	0.5478183621008507	1	2	0.7169038001447916	0.4983931813125853	2	0
13	2	2	0.6	0.1	1	0.4103431937109847	1	2	0.5428822999820113	0.4688580583140595	2	0
13	3	2	0.6	0.1	1	0.5986828476098869	1	2	0.3337701000273228	0.5351882926760473	2	0
13	4	2	0.6	0.1	1	0.5373787026188017	1	1	0.2787223998457193	0.4116598992789019	1	1
13	5	2	0.6	0.1	1	0.5405201351447811	1	1	0.413466100115329	0.4477558906483835	1	1
13	6	2	0.6	0.1	1	0.4232049447789257	1	1	0.3563129000831395	0.4367778576536892	2	1
13	7	2	0.6	0.1	1	0.5625622564944193	1	1	0.3843813000712544	0.4201180927518572	1	1
13	8	2	0.6	0.1	1	0.5307230200876754	1	1	0.3843757000286132	0.5688693228662264	2	1
13	9	2	0.6	0.1	1	0.481671013316716	1	1	0.4591344001237303	0.5823942535664166	1	1
13	10	2	0.6	0.1	1	0.4829006757847146	1	1	0.4373451001010835	0.5918285091464367	2	1
13	11	2	0.6	0.1	1	0.4801631659375789	1	1	0.3747086999937892	0.5318479332559507	2	1
13	12	2	0.6	0.1	1	0.4018259405718285	1	1	0.4263464000541717	0.5809726997957572	1	1
13	13	2	0.6	0.1	1	0.4459197619542976	1	2	0.3295948000159115	0.5960632307369244	2	0
13	14	2	0.6	0.1	1	0.5417488742494169	1	1	0.3348613998387009	0.4697294045403601	2	1
13	15	2	0.6	0.1	1	0.4652750512554107	1	1	0.4052997000981122	0.5469047827893642	2	1
13	16	2	0.6	0.1	1	0.4738254617954537	1	1	0.4294735998846591	0.4940253761604113	1	1
13	17	2	0.6	0.1	1	0.5949666816434267	1	1	0.6793684000149369	0.5028295502236947	1	1
13	18	2	0.6	0.1	1	0.4741391064720512	1	1	0.4102902000304312	0.4787623684892782	2	1
13	19	2	0.6	0.1	1	0.5369757673538	1	1	0.396883700042963	0.4369505551644119	1	1
13	20	2	0.6	0.1	1	0.5289856513812259	1	1	0.4883655998855829	0.4528630558536761	1	1
14	1	1	0.5	0.5	1	0.51799348559208	1	1	0.5837580000516027	0.5730895769799079	2	1
14	2	1	0.5	0.5	1	0.4610320115170732	1	2	0.4349885999690741	0.4369995389249946	1	0
14	3	1	0.5	0.5	1	0.4726901818393313	1	2	0.5271157000679523	0.5677821897114249	2	0
14	4	1	0.5	0.5	1	0.5916216355995084	1	1	0.3603775999508798	0.5752497864644912	1	1
14	5	1	0.5	0.5	1	0.5132004348967623	1	2	0.5643986999057233	0.5627006359833566	1	0
14	6	1	0.5	0.5	1	0.4859174210378112	1	2	0.448130700038746	0.5971566683258905	1	0
14	7	1	0.5	0.5	1	0.4129577366271309	1	2	0.3586705999914557	0.4556317615550047	1	0
14	8	1	0.5	0.5	1	0.420378587394055	1	2	0.4178961000870913	0.4289435447741833	2	0
14	9	1	0.5	0.5	1	0.4139717323786382	1	1	0.3940890999510884	0.5084517285555508	2	1
14	10	1	0.5	0.5	1	0.5873890777807597	1	2	0.3986164999660105	0.436628397476294	2	0
14	11	1	0.5	0.5	1	0.5109533139832402	1	2	0.3142059999518096	0.5248065832549431	1	0
14	12	1	0.5	0.5	1	0.5911495995474642	1	2	0.963389900047332	0.4828517432863626	1	0
14	13	1	0.5	0.5	1	0.500211694410936	1	2	0.8443913999944925	0.5088703232873059	1	0
14	14	1	0.5	0.5	1	0.5202743569136131	1	2	0.3210509000346065	0.4262160721826468	1	0
14	15	1	0.5	0.5	1	0.5567431637905463	1	2	0.3499817999545485	0.5946700679270962	2	0
14	16	1	0.5	0.5	1	0.5924497652568897	1	2	0.3991463000420481	0.4825894124890063	1	0
14	17	1	0.5	0.5	1	0.4280203912080975	1	2	0.6838817000389099	0.5721032872457236	1	0
14	18	1	0.5	0.5	1	0.5150433282754021	1	2	0.42976039997302	0.5144870330651645	2	0
14	19	1	0.5	0.5	1	0.5878798282354278	1	2	0.6491129999049008	0.4156534877906437	1	0
14	20	1	0.5	0.5	1	0.4961877724110288	1	2	0.3536927001550794	0.5451077354581124	1	0
15	1	2	0.1	0.6	2	0.5451733360321013	1	2	1.22058969992213	0.5724021226332049	1	1
15	2	2	0.1	0.6	2	0.5102656557768804	1	2	0.4166094001848251	0.5645031240161383	1	1
15	3	2	0.1	0.6	2	0.5791373710468303	1	2	0.3915244000963867	0.4787815755845463	1	1
15	4	2	0.1	0.6	2	0.5340728278537621	1	2	0.581046300008893	0.4677080562019156	1	1
15	5	2	0.1	0.6	2	0.5206042010610952	1	2	0.6089647999033332	0.4679683191614223	1	1
15	6	2	0.1	0.6	2	0.4204461868294532	1	2	0.3725306999403983	0.5594939693642601	1	1
15	7	2	0.1	0.6	2	0.4285467188981004	1	2	0.2725774999707937	0.4351172775096083	1	1
15	8	2	0.1	0.6	2	0.4131981161070442	1	2	0.3579259000252932	0.5352964101755796	1	1
15	9	2	0.1	0.6	2	0.5403917563686411	1	2	0.3264018001500517	0.5195149020557789	1	1
15	10	2	0.1	0.6	2	0.4025134257071723	1	2	0.412682699970901	0.4180061733343325	2	1
15	11	2	0.1	0.6	2	0.4547625938899792	1	2	0.4421930001117289	0.5878019721357878	2	1
15	12	2	0.1	0.6	2	0.493603549289643	1	1	0.249805900035426	0.4683895263830922	2	0
15	13	2	0.1	0.6	2	0.4902675770812698	1	1	0.0004626000300049782	0.4437370268538028	2	0
15	14	2	0.1	0.6	2	0.4015075003566152	1	1	0.4536180999130011	0.4076672161276628	2	0
15	15	2	0.1	0.6	2	0.5217931606276061	1	2	0.3987528001889586	0.418293363787515	2	1
15	16	2	0.1	0.6	2	0.5635371207485014	1	2	0.2835501998197287	0.480173448381863	2	1
15	17	2	0.1	0.6	2	0.5329923951588204	1	2	0.5057723000645638	0.5143580438997265	1	1
15	18	2	0.1	0.6	2	0.5447545340277408	1	2	0.611947099911049	0.401815550826625	2	1
15	19	2	0.1	0.6	2	0.4817187103161789	1	2	0.4243758001830429	0.4040303749522126	2	1
15	20	2	0.1	0.6	2	0.4195172631874554	1	1	0.4362967000342906	0.5098010865220188	2	0
16	1	2	0.6	0.1	1	0.4701239315212943	1	1	0.9582048000302166	0.5804851070220687	1	1
16	2	2	0.6	0.1	1	0.4903841888822342	1	1	0.559473600005731	0.5882512146465493	1	1
16	3	2	0.6	0.1	1	0.5374353571687055	1	1	0.5351362000219524	0.4779638376185766	1	1
16	4	2	0.6	0.1	1	0.4945451694625955	1	1	0.3426340001169592	0.5817731630291301	2	1
16	5	2	0.6	0.1	1	0.5484315854875698	1	1	0.3308348001446575	0.4767210590475476	1	1
16	6	2	0.6	0.1	1	0.4411144591010923	1	1	0.5734765999950469	0.5602559740904216	1	1
16	7	2	0.6	0.1	1	0.5604078758821598	1	1	0.6853593999985605	0.4363867288001197	1	1
16	8	2	0.6	0.1	1	0.4335523698859791	1	1	0.9814712998922914	0.5815446359129216	1	1
16	9	2	0.6	0.1	1	0.4545181533933717	1	1	0.5219204002059996	0.5293145162252244	2	1
16	10	2	0.6	0.1	1	0.5519261649421914	1	1	0.3490720000118017	0.4959725970400934	2	1
16	11	2	0.6	0.1	1	0.4294622153916557	1	1	0.7315400000661612	0.4284665224639682	1	1
16	12	2	0.6	0.1	1	0.4789645540532541	1	1	0.755796100012958	0.4729830907317096	1	1
16	13	2	0.6	0.1	1	0.4648531456950064	1	1	0.4878331001382321	0.5515725321418955	1	1
16	14	2	0.6	0.1	1	0.5090717370318212	1	1	0.4369683999102563	0.4034962015662948	1	1
16	15	2	0.6	0.1	1	0.4867568762450926	1	1	0.2528101000934839	0.5945315260414989	1	1
16	16	2	0.6	0.1	1	0.4607984471060298	1	1	0.3714230000041425	0.476953094217243	2	1
16	17	2	0.6	0.1	1	0.4447693011980664	1	1	0.3891306000296026	0.4338449367533924	1	1
16	18	2	0.6	0.1	1	0.4329857403181001	1	1	0.3339851000346243	0.4433633659610282	1	1
16	19	2	0.6	0.1	1	0.5589172634721098	1	1	0.3145079000387341	0.4598955758692724	1	1
16	20	2	0.6	0.1	1	0.4937619148898668	1	1	0.3310740999877453	0.5442636177158411	2	1
17	1	1	0.5	0.5	1	0.5933092736152136	1	2	0.5157651000190526	0.4877807072724212	1	0
17	2	1	0.5	0.5	1	0.5818966200200701	1	2	0.4845888998825103	0.4634679242634058	2	0
17	3	1	0.5	0.5	1	0.5959998540275619	1	1	0.3194190000649542	0.5867944829239216	2	1
17	4	1	0.5	0.5	1	0.4963204697093812	1	2	0.3403680000919849	0.5317887019818839	2	0
17	5	1	0.5	0.5	1	0.5437435438935579	1	1	0.3887986000627279	0.4761595004944554	2	1
17	6	1	0.5	0.5	1	0.4837356132272729	1	1	0.44899330008775	0.4809530458082326	1	1
17	7	1	0.5	0.5	1	0.5692982924828732	1	2	0.2844591999892145	0.4645298976484101	1	0
17	8	1	0.5	0.5	1	0.4139936702280609	1	2	0.2867197000887245	0.4811815793513778	1	0
17	9	1	0.5	0.5	1	0.4146472857679706	1	1	0.3838384000118822	0.4166510336142335	1	1
17	10	1	0.5	0.5	1	0.5055830346785036	1	2	0.5055577999446541	0.40937255007489	2	0
17	11	1	0.5	0.5	1	0.5473499510969647	1	1	0.3834334001876414	0.4293575013351237	2	1
17	12	1	0.5	0.5	1	0.5619703484480303	1	2	0.3745495998300612	0.4418458310580168	1	0
17	13	1	0.5	0.5	1	0.5133310516633549	1	2	0.6952420000452548	0.4793897505790987	2	0
17	14	1	0.5	0.5	1	0.5456064275073867	1	1	0.6565403998829424	0.5988022685389262	1	1
17	15	1	0.5	0.5	1	0.5752788225883614	1	1	0.8602364999242127	0.4010645775032283	1	1
17	16	1	0.5	0.5	1	0.4217720156222887	1	2	0.4896042000036687	0.550932979842605	2	0
17	17	1	0.5	0.5	1	0.4046246391104354	1	1	0.5425269999541342	0.5527064476496595	2	1
17	18	1	0.5	0.5	1	0.5975471000398198	1	2	0.4707686000037938	0.5319008119883893	1	0
17	19	1	0.5	0.5	1	0.5609280617031768	1	1	0.5933528000023216	0.5404581048874123	2	1
17	20	1	0.5	0.5	1	0.4438924133578421	1	2	0.4918674998916686	0.5545304416836888	1	0
18	1	1	0.5	0.5	1	0.5040831737022407	1	1	0.5912210000678897	0.4892161184195656	1	1
18	2	1	0.5	0.5	1	0.4836438512833914	1	1	0.6549601000733674	0.4468255988506076	2	1
18	3	1	0.5	0.5	1	0.5264362616562706	1	2	0.3703334999736398	0.5544062641485751	1	0
18	4	1	0.5	0.5	1	0.5438128942855918	1	2	0.3242589000146836	0.5381015692972432	1	0
18	5	1	0.5	0.5	1	0.5275177575532893	1	2	0.3430569998454303	0.4179459739950353	1	0
18	6	1	0.5	0.5	1	0.5460058907214802	1	2	0.4028380999807268	0.4147344082810403	2	0
18	7	1	0.5	0.5	1	0.5205335241395725	1	2	0.5291032998356968	0.5135578700242094	1	0
18	8	1	0.5	0.5	1	0.4332429401613744	1	2	0.4481142999138683	0.4564372581529857	1	0
18	9	1	0.5	0.5	1	0.4573562676634819	1	2	0.3412336001638323	0.5079287011781635	1	0
18	10	1	0.5	0.5	1	0.4481867241343968	1	2	0.2517202999442816	0.5303761510208913	2	0
18	11	1	0.5	0.5	1	0.457725931432685	1	2	0.3686855998821557	0.495711134784418	1	0
18	12	1	0.5	0.5	1	0.4175357891047582	1	2	0.2465984998270869	0.4197517420085642	2	0
18	13	1	0.5	0.5	1	0.5731993954273797	1	1	0.2699136000592262	0.5130955573388845	1	1
18	14	1	0.5	0.5	1	0.4114026776842237	1	2	0.3955061999149621	0.4802985903324152	1	0
18	15	1	0.5	0.5	1	0.5498960473550745	1	2	0.3466295001562685	0.4144891690646942	1	0
18	16	1	0.5	0.5	1	0.4624599079460501	1	1	0.4717586999759078	0.5119374920884239	2	1
18	17	1	0.5	0.5	1	0.4126852224499435	1	2	0.3476956998929381	0.4422269575907921	1	0
18	18	1	0.5	0.5	1	0.4013415782518834	1	2	0.5451911999844015	0.412981727456056	1	0
18	19	1	0.5	0.5	1	0.4554062020895223	1	2	0.4889352999161929	0.4333097681572451	1	0
18	20	1	0.5	0.5	1	0.5553924356795503	1	2	0.3703383000101894	0.5594044272612612	1	0
19	1	2	0.1	0.6	2	0.5470287521996102	1	2	0.7218373001087457	0.4512324751475901	1	1
19	2	2	0.1	0.6	2	0.4652842428339096	1	2	0.4741649001371115	0.4784574076281261	2	1
19	3	2	0.1	0.6	2	0.4948399809720885	1	2	0.4529176999349147	0.5746493362899933	1	1
19	4	2	0.1	0.6	2	0.5888226094508994	1	2	0.4096373000647873	0.4299934324195386	1	1
19	5	2	0.1	0.6	2	0.5777354598432913	1	2	0.2850963000673801	0.473058045179941	2	1
19	6	2	0.1	0.6	2	0.4712974485394459	1	1	0.391368200071156	0.5442506901044484	2	0
19	7	2	0.1	0.6	2	0.4070325153626319	1	2	0.354437300004065	0.5316273939013491	2	1
19	8	2	0.1	0.6	2	0.4846632912758771	1	2	0.3392669998575002	0.5505101594069055	2	1
19	9	2	0.1	0.6	2	0.4510933737591684	1	2	0.3172526000998914	0.4671047156277166	1	1
19	10	2	0.1	0.6	2	0.4325329186233006	1	2	0.3997573000378907	0.564266582365731	1	1
19	11	2	0.1	0.6	2	0.4246215469544091	1	2	0.6674744000192732	0.5211109411431568	1	1
19	12	2	0.1	0.6	2	0.5768206136433496	1	2	0.3593062001746148	0.475897835136473	1	1
19	13	2	0.1	0.6	2	0.456253772503531	1	2	0.3256254999432713	0.5021746259269489	1	1
19	14	2	0.1	0.6	2	0.4327808666015505	1	2	0.3081197000574321	0.4560248274249548	1	1
19	15	2	0.1	0.6	2	0.4794304865717301	1	2	0.2917426000349224	0.4481888975121505	2	1
19	16	2	0.1	0.6	2	0.4802120297361251	1	2	0.3120889998972416	0.589722344521132	1	1
19	17	2	0.1	0.6	2	0.4179064866173663	1	2	0.324763499898836	0.4306211050068893	1	1
19	18	2	0.1	0.6	2	0.5254957112112322	1	2	0.5266086999326944	0.4034672096711809	2	1
19	19	2	0.1	0.6	2	0.4633321074816645	1	2	0.4662409999873489	0.5893871360549217	2	1
19	20	2	0.1	0.6	2	0.5283768046985732	1	1	0.5303311999887228	0.4007559063251702	2	0
20	1	1	0.5	0.5	1	0.5014405823456497	1	1	0.6534615999553353	0.4738331342927534	1	1
20	2	1	0.5	0.5	1	0.51628506841792	1	1	0.4835997999180108	0.4344520493651757	1	1
20	3	1	0.5	0.5	1	0.4213663790285402	1	1	0.5863115999381989	0.4552891811310683	2	1
20	4	1	0.5	0.5	1	0.5885931925471121	1	2	0.414623900083825	0.5274916001729317	1	0
20	5	1	0.5	0.5	1	0.5008080230597047	1	2	0.3930687999818474	0.4921130358764391	1	0
20	6	1	0.5	0.5	1	0.5140285375848538	1	1	0.4253289999905974	0.4164432514838322	2	1
20	7	1	0.5	0.5	1	0.5785692191803602	1	2	0.3997054998762906	0.5560346692993495	1	0
20	8	1	0.5	0.5	1	0.4479557313317627	1	2	0.4511512001045048	0.5166312209638334	1	0
20	9	1	0.5	0.5	1	0.582023085960658	1	1	0.3284571000840515	0.4702329957925783	1	1
20	10	1	0.5	0.5	1	0.4375960917600288	1	2	0.4240190999116749	0.4582289664381201	2	0
20	11	1	0.5	0.5	1	0.4174000825323834	1	1	0.3452531998045743	0.5367225021359363	1	1
20	12	1	0.5	0.5	1	0.5406716007004625	1	1	0.3780278000049293	0.5124263296092223	1	1
20	13	1	0.5	0.5	1	0.5092153630935667	1	2	0.3472883000504225	0.5866395837433452	1	0
20	14	1	0.5	0.5	1	0.4489083600226659	1	2	0.3757329999934882	0.5226670295370253	2	0
20	15	1	0.5	0.5	1	0.4750191072164301	1	1	0.3572112999390811	0.4170726754497909	1	1
20	16	1	0.5	0.5	1	0.4384931356536003	1	1	0.5135455999989063	0.5745705267998057	1	1
20	17	1	0.5	0.5	1	0.4695361713519567	1	1	0.3567983000539243	0.5666592171727103	2	1
20	18	1	0.5	0.5	1	0.4514954776569887	1	2	0.3437353998888284	0.4732379657327887	1	0
20	19	1	0.5	0.5	1	0.5444422761562271	1	2	0.2766251000575721	0.4814261576573038	1	0
20	20	1	0.5	0.5	1	0.4741423717006019	1	1	0.3294210999738425	0.4020467209257474	1	1
