blockNum	trialNum	condition	pWin1	pWin2	optimalResponse	preStimulusDelay	responded	response	rt	preFeedbackDelay	outcome	optimal
1	1	2	0.6	0.1	1	0.4366482978609859	1	1	0.9292484000325203	0.4790317269747114	1	1
1	2	2	0.6	0.1	1	0.4016369929750531	1	1	0.3672974999062717	0.4267762093088661	1	1
1	3	2	0.6	0.1	1	0.4908328902345965	1	1	0.4567864001728594	0.446419884856643	2	1
1	4	2	0.6	0.1	1	0.5919764319577232	1	1	0.677620000205934	0.57961810129216	2	1
1	5	2	0.6	0.1	1	0.5354538332060144	1	1	0.634315799921751	0.5581965604737619	2	1
1	6	2	0.6	0.1	1	0.5645757411500965	1	1	0.525917099788785	0.5027922913370686	2	1
1	7	2	0.6	0.1	1	0.4809169659530565	1	1	0.758042000234127	0.4090755441215828	1	1
1	8	2	0.6	0.1	1	0.5379111912133114	1	1	0.6634161998517811	0.4005368755413999	1	1
1	9	2	0.6	0.1	1	0.4167214093311937	1	1	0.430080599617213	0.4943069864240821	2	1
1	10	2	0.6	0.1	1	0.5756798678367144	1	1	0.4487077998928726	0.5702824977588213	1	1
1	11	2	0.6	0.1	1	0.5698338964960828	1	1	0.3306497000157833	0.4255209099183894	2	1
1	12	2	0.6	0.1	1	0.4412300489852978	1	1	0.5327765000984073	0.4486647449319313	1	1
1	13	2	0.6	0.1	1	0.5228572994904518	1	1	0.3216841001994908	0.5709552433239129	1	1
1	14	2	0.6	0.1	1	0.5832800163638385	1	1	0.3785036997869611	0.4314206538043432	1	1
1	15	2	0.6	0.1	1	0.5165704746914553	1	1	0.2866185996681452	0.4625726529177262	2	1
1	16	2	0.6	0.1	1	0.4983791243243861	1	2	0.3353145997971296	0.5380180118136941	2	0
1	17	2	0.6	0.1	1	0.5904181294496657	1	1	0.2785185002721846	0.5671760228479391	1	1
1	18	2	0.6	0.1	1	0.5761505939451168	1	1	0.2799048000015318	0.454444640049508	2	1
1	19	2	0.6	0.1	1	0.4524648897710273	1	2	0.5011076000519097	0.5559381155188964	2	0
1	20	2	0.6	0.1	1	0.5223532896587091	1	1	0.258948199916631	0.5838362460346549	1	1
2	1	1	0.5	0.5	1	0.5047169742208173	0	n/a	n/a	n/a	n/a	n/a
2	2	1	0.5	0.5	1	0.5879589535139482	1	2	0.3683392000384629	0.5826536445607977	2	0
2	3	1	0.5	0.5	1	0.5827518429198344	1	2	0.3188591003417969	0.5256590052522663	2	0
2	4	1	0.5	0.5	1	0.4812803417342964	1	2	0.2481149001978338	0.5029819373856554	1	0
2	5	1	0.5	0.5	1	0.404589764649694	1	2	0.2599029000848532	0.5182904194732748	2	0
2	6	1	0.5	0.5	1	0.4407812596419179	1	2	0.6179144000634551	0.5878343217176502	2	0
2	7	1	0.5	0.5	1	0.5500023920232546	1	2	0.3752350998111069	0.5220638244064962	2	0
2	8	1	0.5	0.5	1	0.5809288878054475	1	1	0.5301263998262584	0.4419363340464221	1	1
2	9	1	0.5	0.5	1	0.508030231829983	1	1	0.4990552002564073	0.5287258571626975	2	1
2	10	1	0.5	0.5	1	0.4450136101541715	1	1	0.3147536995820701	0.4042318052170725	2	1
2	11	1	0.5	0.5	1	0.56516621871803	1	1	0.4170397999696434	0.5304204047769413	1	1
2	12	1	0.5	0.5	1	0.4318647740048909	1	1	0.583884300198406	0.5096598797513054	1	1
2	13	1	0.5	0.5	1	0.4355861334427482	1	1	0.4127695998176932	0.4092430135440344	1	1
2	14	1	0.5	0.5	1	0.5992121019653508	1	1	0.3775377999991179	0.5094466757196243	1	1
2	15	1	0.5	0.5	1	0.5191745838785606	1	1	0.6164098000153899	0.442841269952266	2	1
2	16	1	0.5	0.5	1	0.5546161154297695	1	1	0.3480442999862134	0.5893282884791099	1	1
2	17	1	0.5	0.5	1	0.5529163772091262	1	1	0.6590984999202192	0.494737988250407	2	1
2	18	1	0.5	0.5	1	0.4006698054143205	1	1	0.7676769997924566	0.4156853789019944	1	1
2	19	1	0.5	0.5	1	0.5572808302340205	1	1	0.7137759998440742	0.4624905418438506	1	1
2	20	1	0.5	0.5	1	0.4034967303294287	1	1	0.3424092000350356	0.4745121437716229	2	1
3	1	2	0.6	0.1	1	0.5331639856558017	1	1	1.034969000145793	0.4708920078192393	1	1
3	2	2	0.6	0.1	1	0.4769297146286059	1	1	0.6262884000316262	0.4085827910849839	1	1
3	3	2	0.6	0.1	1	0.4697287048105976	1	1	0.2942248997278512	0.5996770155542956	1	1
3	4	2	0.6	0.1	1	0.4606344805990859	1	1	0.2631737003102899	0.4475595006287947	1	1
3	5	2	0.6	0.1	1	0.5135580768014424	1	1	0.3679072996601462	0.4632462982594669	1	1
3	6	2	0.6	0.1	1	0.5349436396485903	1	1	0.266124099958688	0.5373398681734431	1	1
3	7	2	0.6	0.1	1	0.4267093374161182	1	1	0.2553308000788093	0.4223507936778838	2	1
3	8	2	0.6	0.1	1	0.417105467352845	1	1	0.5831247996538877	0.4917030831105899	1	1
3	9	2	0.6	0.1	1	0.4658770653415726	1	1	0.3536939001642168	0.5215834121106445	2	1
3	10	2	0.6	0.1	1	0.4933539698241164	1	1	0.3200465999543667	0.5797174341282367	1	1
3	11	2	0.6	0.1	1	0.4519942748729362	1	1	0.5790351997129619	0.4624178115854249	1	1
3	12	2	0.6	0.1	1	0.505614623931582	1	1	0.5182998003438115	0.4466984034245735	1	1
3	13	2	0.6	0.1	1	0.5126701525674049	1	1	0.4002355998381972	0.5882504568821578	1	1
3	14	2	0.6	0.1	1	0.5679962795011224	1	1	0.2199132000096142	0.4563607566844728	1	1
3	15	2	0.6	0.1	1	0.5021681837402689	1	1	0.2970394999720156	0.4165101280741826	1	1
3	16	2	0.6	0.1	1	0.5164611820687341	1	1	0.4464865000918508	0.4581955888312834	2	1
3	17	2	0.6	0.1	1	0.5236278296359729	1	1	0.7721706000156701	0.4708091946326449	1	1
3	18	2	0.6	0.1	1	0.4822414318443262	1	1	0.5117116998881102	0.4618747684867706	1	1
3	19	2	0.6	0.1	1	0.4212509527945381	1	1	0.3776509999297559	0.5450319980764788	1	1
3	20	2	0.6	0.1	1	0.5183219962604353	1	1	0.3324945000931621	0.440886559271668	2	1
4	1	2	0.1	0.6	2	0.5298316027104362	1	2	0.5459929001517594	0.476379273655902	2	1
4	2	2	0.1	0.6	2	0.4337439015762206	1	2	1.076452699955553	0.4021994959041917	1	1
4	3	2	0.1	0.6	2	0.5453694456276249	1	2	0.3524059001356363	0.4868111438973183	2	1
4	4	2	0.1	0.6	2	0.4721274833519009	1	2	0.5899088997393847	0.566923110139169	1	1
4	5	2	0.1	0.6	2	0.5664812351168274	1	1	0.7904256996698678	0.4909423425591465	2	0
4	6	2	0.1	0.6	2	0.5897481418076329	1	1	1.012618999928236	0.4894974432660129	2	0
4	7	2	0.1	0.6	2	0.5062878119451184	1	2	0.9538467000238597	0.538333549681356	1	1
4	8	2	0.1	0.6	2	0.5055342050280537	1	1	0.8232121001929045	0.5428216573927799	2	0
4	9	2	0.1	0.6	2	0.5908634763169274	1	2	0.644605299923569	0.4126423923568906	1	1
4	10	2	0.1	0.6	2	0.5632676179073565	1	2	1.045898200012743	0.5442840489564909	2	1
4	11	2	0.1	0.6	2	0.4951043025638061	1	2	0.5762958000414073	0.599895863582943	1	1
4	12	2	0.1	0.6	2	0.58679211306678	1	1	0.3798032999038696	0.5871793731586905	2	0
4	13	2	0.1	0.6	2	0.5674888485991945	1	1	0.3421647003851831	0.4708986101045352	2	0
4	14	2	0.1	0.6	2	0.5716454374872091	1	2	0.2896678000688553	0.5257577825405219	1	1
4	15	2	0.1	0.6	2	0.5499486953919632	1	2	0.3105979999527335	0.5692999157347484	1	1
4	16	2	0.1	0.6	2	0.4963774336981745	1	2	0.268565300386399	0.4117248758278318	1	1
4	17	2	0.1	0.6	2	0.589783104105685	1	2	0.2199011002667248	0.5830184829633149	1	1
4	18	2	0.1	0.6	2	0.4361911283091958	1	2	0.2961968998424709	0.494005625465434	2	1
4	19	2	0.1	0.6	2	0.4091642303320758	1	2	0.4522176003083587	0.4703817260284885	2	1
4	20	2	0.1	0.6	2	0.5124946328457072	1	2	0.329938099719584	0.4432610482677318	2	1
5	1	1	0.5	0.5	1	0.5550784380505109	1	2	0.3157648998312652	0.5838440422136806	1	0
5	2	1	0.5	0.5	1	0.5773393106335732	1	2	0.3146790000610054	0.4993310468930953	1	0
5	3	1	0.5	0.5	1	0.4120987016781951	1	2	0.2719557001255453	0.4642279134017853	2	0
5	4	1	0.5	0.5	1	0.5274024356591375	1	2	0.4479463002644479	0.4401466639752712	1	0
5	5	1	0.5	0.5	1	0.5993402216386079	1	2	0.2535824999213219	0.4201814301924031	1	0
5	6	1	0.5	0.5	1	0.4871428927356736	1	2	0.2856454001739621	0.4772992531164036	2	0
5	7	1	0.5	0.5	1	0.5959271429647897	1	2	0.3395519000478089	0.568355151383594	1	0
5	8	1	0.5	0.5	1	0.5725719287739438	1	2	0.3023547003977001	0.5619627522038483	1	0
5	9	1	0.5	0.5	1	0.5120097180240629	1	2	0.3294211002066731	0.5401404347793315	1	0
5	10	1	0.5	0.5	1	0.4420687868529916	1	2	0.3869342999532819	0.4966655877544782	1	0
5	11	1	0.5	0.5	1	0.4993535077494218	1	2	0.3035678002052009	0.4239165341178495	2	0
5	12	1	0.5	0.5	1	0.5220286677277404	1	2	0.4423858001828194	0.5997981780788569	1	0
5	13	1	0.5	0.5	1	0.5860829897808504	1	2	0.3324257996864617	0.4926035799693583	1	0
5	14	1	0.5	0.5	1	0.5695580801064285	1	2	0.3237356003373861	0.5392255640202428	1	0
5	15	1	0.5	0.5	1	0.4518782062225205	1	2	0.3987496001645923	0.4527944019555531	1	0
5	16	1	0.5	0.5	1	0.5895538938128285	1	2	0.3715478996746242	0.4322662668070772	2	0
5	17	1	0.5	0.5	1	0.4879341841407785	1	2	0.7004267000593245	0.4779267146703817	1	0
5	18	1	0.5	0.5	1	0.4996317138220042	1	2	0.7514344002120197	0.4335387100488454	1	0
5	19	1	0.5	0.5	1	0.5738087750281103	1	2	0.4264789996668696	0.4249394082179681	1	0
5	20	1	0.5	0.5	1	0.5652819354042167	1	2	0.3504063999280334	0.5291678229349255	1	0
6	1	1	0.5	0.5	1	0.4908449304163955	1	1	1.124473200179636	0.4896686996279567	1	1
6	2	1	0.5	0.5	1	0.5234246216022064	1	1	0.3385231997817755	0.435544977294901	2	1
6	3	1	0.5	0.5	1	0.4981236340255814	1	1	0.2613455001264811	0.4706123450624457	2	1
6	4	1	0.5	0.5	1	0.4995964602875372	1	1	0.4318197998218238	0.5231923931981184	1	1
6	5	1	0.5	0.5	1	0.4809309538356293	1	1	0.4482493000105023	0.4993536151493632	2	1
6	6	1	0.5	0.5	1	0.4686172766089611	1	1	0.6415149001404643	0.5787209066974538	1	1
6	7	1	0.5	0.5	1	0.5466733759004139	1	1	0.4026399003341794	0.5506426697376581	1	1
6	8	1	0.5	0.5	1	0.4895095190045895	1	1	0.410098500084132	0.4841530528148331	2	1
6	9	1	0.5	0.5	1	0.5553835619684933	1	1	0.2765092002227902	0.5517737462049076	2	1
6	10	1	0.5	0.5	1	0.5016304248245861	1	1	0.3018136997707188	0.4542110840094461	1	1
6	11	1	0.5	0.5	1	0.4204768530685822	1	1	0.5824314001947641	0.4812515825597534	1	1
6	12	1	0.5	0.5	1	0.5723074569685423	1	1	0.3634990998543799	0.5388020559173683	1	1
6	13	1	0.5	0.5	1	0.4443797191502191	1	1	0.4247738001868129	0.4364400957265805	2	1
6	14	1	0.5	0.5	1	0.5198218049610216	1	1	0.5669700996950269	0.5457447700549649	2	1
6	15	1	0.5	0.5	1	0.5609020985099133	1	1	0.2341613001190126	0.5783360577988615	2	1
6	16	1	0.5	0.5	1	0.5898972742880872	1	1	0.3695231000892818	0.5876901064219315	1	1
6	17	1	0.5	0.5	1	0.537118055082133	1	1	0.4712881003506482	0.4011227532597997	2	1
6	18	1	0.5	0.5	1	0.5092366178400849	1	1	0.5670492998324335	0.4979785025070471	2	1
6	19	1	0.5	0.5	1	0.5955286961847586	1	1	0.5787317999638617	0.4432896088301376	1	1
6	20	1	0.5	0.5	1	0.5067514264572937	1	1	0.4779908997006714	0.5969157642460695	2	1
7	1	2	0.6	0.1	1	0.4975109468653288	1	2	0.2723087999038398	0.4885394339429861	2	0
7	2	2	0.6	0.1	1	0.4590638108252055	1	1	0.4447261998429894	0.4439272726891522	2	1
7	3	2	0.6	0.1	1	0.4350299946234536	1	1	0.2510807001963258	0.5774480760230787	2	1
7	4	2	0.6	0.1	1	0.438496972838194	1	2	0.4294424001127481	0.4738812746954556	2	0
7	5	2	0.6	0.1	1	0.4969983482205987	1	2	0.2336141001433134	0.561114822261972	2	0
7	6	2	0.6	0.1	1	0.4219903065585698	1	2	0.3237577001564205	0.5171402771040131	2	0
7	7	2	0.6	0.1	1	0.558244833860122	1	1	0.378814599942416	0.4055894835827522	2	1
7	8	2	0.6	0.1	1	0.5733049448358727	1	1	0.3587162001058459	0.517626515317648	2	1
7	9	2	0.6	0.1	1	0.5075731413932882	1	1	0.3890796001069248	0.4995983874865075	1	1
7	10	2	0.6	0.1	1	0.4192620695609992	1	1	0.2915183999575675	0.4983448443955312	1	1
7	11	2	0.6	0.1	1	0.5475091013744806	1	1	0.296452899929136	0.4859280630856119	1	1
7	12	2	0.6	0.1	1	0.4775406573626766	1	1	0.2672178000211716	0.4920394397527972	1	1
7	13	2	0.6	0.1	1	0.5524820252376077	1	1	0.233691300265491	0.5650838746054971	1	1
7	14	2	0.6	0.1	1	0.4046875023897364	1	1	0.2837134003639221	0.4516512224911686	1	1
7	15	2	0.6	0.1	1	0.4837189899206158	1	1	0.3535480001010001	0.4467420402413339	1	1
7	16	2	0.6	0.1	1	0.4553854600277947	1	1	0.3675365997478366	0.5018179577298171	2	1
7	17	2	0.6	0.1	1	0.5531875594113669	1	1	0.464982199948281	0.57805517883574	1	1
7	18	2	0.6	0.1	1	0.5290551499745262	1	1	0.2997308000922203	0.4734859522325098	1	1
7	19	2	0.6	0.1	1	0.461372408840619	1	1	0.4479761999100447	0.4182676593699577	1	1
7	20	2	0.6	0.1	1	0.489017075747713	1	1	0.3214246002025902	0.5747362301568016	1	1
8	1	1	0.5	0.5	1	0.4145128744554029	1	1	0.4023631000891328	0.4727373069342679	1	1
8	2	1	0.5	0.5	1	0.5222245266223124	1	1	0.3040125998668373	0.5829192005193644	2	1
8	3	1	0.5	0.5	1	0.4336449193938962	1	1	0.0003983997739851475	0.5691759485636066	1	1
8	4	1	0.5	0.5	1	0.5333421664861969	1	1	0.4425478000193834	0.5062099495186787	2	1
8	5	1	0.5	0.5	1	0.4399168969610853	1	1	0.3265968998894095	0.4800481645914473	2	1
8	6	1	0.5	0.5	1	0.4485360041105403	1	1	0.3651686999946833	0.4033030075134627	1	1
8	7	1	0.5	0.5	1	0.4015134915019125	1	1	0.4468745999038219	0.4870985961425189	1	1
8	8	1	0.5	0.5	1	0.4804816764281676	1	1	0.5628700000233948	0.5230465269593866	2	1
8	9	1	0.5	0.5	1	0.5519801774858225	1	1	0.4846493997611105	0.4163064184988303	1	1
8	10	1	0.5	0.5	1	0.5210683049081288	1	1	0.4615961001254618	0.5606269853372274	2	1
8	11	1	0.5	0.5	1	0.4461584336887542	1	1	0.3674699999392033	0.4615759212143485	2	1
8	12	1	0.5	0.5	1	0.4489916159569508	1	1	0.4542175000533462	0.4640215230809618	2	1
8	13	1	0.5	0.5	1	0.4647372119948543	1	1	0.4979592999443412	0.5171075668521392	2	1
8	14	1	0.5	0.5	1	0.41498394493351	1	2	0.3768983003683388	0.4129669792535347	1	0
8	15	1	0.5	0.5	1	0.5738551052538288	1	2	0.3493451001122594	0.5846468151915629	1	0
8	16	1	0.5	0.5	1	0.4151047483079914	1	2	0.3582969000563025	0.4364234566551995	2	0
8	17	1	0.5	0.5	1	0.5241554372310959	1	2	0.3668094002641737	0.4305163035070894	2	0
8	18	1	0.5	0.5	1	0.5118461043276856	1	2	0.3003456997685134	0.4864114168015568	1	0
8	19	1	0.5	0.5	1	0.4411364261206453	1	2	0.3429267001338303	0.5127557482754254	1	0
8	20	1	0.5	0.5	1	0.5855131573913939	1	2	0.3177086999639869	0.5431266558893468	2	0
9	1	2	0.6	0.1	1	0.4932228202935695	1	2	1.500681200064719	0.4802231319174801	2	0
9	2	2	0.6	0.1	1	0.5296356273031585	1	2	0.3225051001645625	0.5450365938708844	2	0
9	3	2	0.6	0.1	1	0.5431220881981392	1	1	0.2207455998286605	0.4771064943867577	1	1
9	4	2	0.6	0.1	1	0.5810772691685167	1	1	0.2887042998336256	0.4650344296853365	1	1
9	5	2	0.6	0.1	1	0.4901692635052751	1	1	0.3166882996447384	0.5545954760472021	1	1
9	6	2	0.6	0.1	1	0.4243148246343015	1	1	0.3638600003905594	0.5588306686274459	2	1
9	7	2	0.6	0.1	1	0.4290428889252136	1	1	0.3534862003289163	0.4964653773827662	2	1
9	8	2	0.6	0.1	1	0.4935598777458197	1	1	0.001118400134146214	0.5194777007300043	1	1
9	9	2	0.6	0.1	1	0.552089312946152	1	1	0.3030137997120619	0.4931309505936216	2	1
9	10	2	0.6	0.1	1	0.5199098743271128	1	1	0.4980716998688877	0.5399844401032323	1	1
9	11	2	0.6	0.1	1	0.4479196841604161	1	1	0.4241888001561165	0.5671786347378112	1	1
9	12	2	0.6	0.1	1	0.4829952878171838	1	1	0.5139369000680745	0.4861524522006004	2	1
9	13	2	0.6	0.1	1	0.5709284173910769	1	1	0.5104172001592815	0.5607172974364911	2	1
9	14	2	0.6	0.1	1	0.5500734821889234	1	1	0.5439745001494884	0.482500954500776	1	1
9	15	2	0.6	0.1	1	0.4509099605970869	1	1	0.4840255999006331	0.5458356485540269	1	1
9	16	2	0.6	0.1	1	0.5940550138713351	1	1	0.6131989997811615	0.5097145548366575	2	1
9	17	2	0.6	0.1	1	0.5388964841321796	1	1	0.3855227003805339	0.442949880091324	1	1
9	18	2	0.6	0.1	1	0.5594993448492317	1	1	0.4361539999954402	0.5503402142216424	2	1
9	19	2	0.6	0.1	1	0.5706442875665297	1	1	0.3082174998708069	0.5554940700582165	1	1
9	20	2	0.6	0.1	1	0.4284206348823023	1	2	0.3419078998267651	0.458372760645597	2	0
10	1	1	0.5	0.5	1	0.5189104753552714	1	1	0.5938660004176199	0.551047080157431	1	1
10	2	1	0.5	0.5	1	0.553077267710545	1	1	0.3317215000279248	0.5139622408298391	2	1
10	3	1	0.5	0.5	1	0.4707145888037002	1	1	0.3324074000120163	0.4222147866402367	2	1
10	4	1	0.5	0.5	1	0.557742216674975	1	1	0.2994154999032617	0.5169678478912223	1	1
10	5	1	0.5	0.5	1	0.4606789467648705	1	1	0.2887535002082586	0.4989142347178225	2	1
10	6	1	0.5	0.5	1	0.4890971702343386	1	1	0.33302509970963	0.5951368949844136	2	1
10	7	1	0.5	0.5	1	0.5738635991575667	1	1	0.3317193002440035	0.5858600377865877	2	1
10	8	1	0.5	0.5	1	0.5601483453129186	1	2	0.3735909000970423	0.4040991067515399	2	0
10	9	1	0.5	0.5	1	0.5010242461607263	1	2	0.3878130000084639	0.405475351050294	1	0
10	10	1	0.5	0.5	1	0.4268044646873258	1	2	0.6019142996519804	0.5601506442588248	1	0
10	11	1	0.5	0.5	1	0.4412456945414979	1	2	0.3860316001810133	0.5681611177340443	2	0
10	12	1	0.5	0.5	1	0.5085457053878928	1	2	0.482341299764812	0.597127640792125	1	0
10	13	1	0.5	0.5	1	0.4404904590940708	1	2	0.3993707001209259	0.4868941517778562	1	0
10	14	1	0.5	0.5	1	0.4707622002062345	1	2	0.3383756000548601	0.4284355098657082	1	0
10	15	1	0.5	0.5	1	0.5620520639788018	1	2	0.3716295999474823	0.5521824546392889	2	0
10	16	1	0.5	0.5	1	0.4596150347251144	1	2	0.3926552003249526	0.4253300461539783	2	0
10	17	1	0.5	0.5	1	0.5507266611517688	1	2	0.3796040001325309	0.4756898418520245	1	0
10	18	1	0.5	0.5	1	0.436980517482353	1	2	0.5027950000949204	0.5905416422065963	1	0
10	19	1	0.5	0.5	1	0.4775074953278563	1	2	0.4947485998272896	0.5036649801929378	2	0
10	20	1	0.5	0.5	1	0.5491477615883245	1	2	0.5448781996965408	0.5492423127347279	2	0
11	1	2	0.6	0.1	1	0.4198796377652464	1	1	1.734137899708003	0.4789281113452342	2	1
11	2	2	0.6	0.1	1	0.5358300719917403	1	2	0.3270519999787211	0.4556747880512347	2	0
11	3	2	0.6	0.1	1	0.5739809989601159	1	1	0.2852591001428664	0.4678479808718666	2	1
11	4	2	0.6	0.1	1	0.4363567623082995	1	1	0.3307791999541223	0.4035030590676852	1	1
11	5	2	0.6	0.1	1	0.4638547611423111	1	1	0.4420147999189794	0.5456342284374475	1	1
11	6	2	0.6	0.1	1	0.5401484815305478	1	1	0.2519602002575994	0.5664399919637939	1	1
11	7	2	0.6	0.1	1	0.5264062143083859	1	1	0.4514101999811828	0.4167087898350699	2	1
11	8	2	0.6	0.1	1	0.5685429119527016	1	1	0.357510699890554	0.4051738853609195	1	1
11	9	2	0.6	0.1	1	0.5167629334636843	1	1	0.3881389000453055	0.4520495014883944	1	1
11	10	2	0.6	0.1	1	0.4460820138641214	1	1	0.3149457001127303	0.545669512677313	1	1
11	11	2	0.6	0.1	1	0.5404109115012716	1	1	0.4169975998811424	0.442939032760445	2	1
11	12	2	0.6	0.1	1	0.5109579002053521	1	1	0.5541226998902857	0.4593972882949595	2	1
11	13	2	0.6	0.1	1	0.4946402856417391	1	1	0.3317064000293612	0.4744572538368308	2	1
11	14	2	0.6	0.1	1	0.5860379812542742	1	1	0.3226848999038339	0.569496338324335	2	1
11	15	2	0.6	0.1	1	0.4439666191015174	1	1	0.4603690998628736	0.4090174481894935	2	1
11	16	2	0.6	0.1	1	0.4683667629777915	1	1	0.4127702997066081	0.4976428790491231	1	1
11	17	2	0.6	0.1	1	0.5502779726310234	1	1	0.4029239001683891	0.4468660713618752	1	1
11	18	2	0.6	0.1	1	0.408208088128854	1	1	0.4700968000106514	0.4905356366594078	1	1
11	19	2	0.6	0.1	1	0.5580714233988054	1	1	0.4281899998895824	0.5137629517313922	2	1
11	20	2	0.6	0.1	1	0.433004853408424	1	1	0.4766239002346992	0.5220847591732205	1	1
12	1	2	0.6	0.1	1	0.4222658554673945	1	2	0.2637748001143336	0.4481066988571292	1	0
12	2	2	0.6	0.1	1	0.4930630479288078	1	2	0.3644010997377336	0.4272432056540121	2	0
12	3	2	0.6	0.1	1	0.5876170463290398	1	2	0.3289067000150681	0.5100844579545957	2	0
12	4	2	0.6	0.1	1	0.550138223125942	1	2	0.2997768996283412	0.5333640923047537	2	0
12	5	2	0.6	0.1	1	0.4467314698221058	1	2	0.3028874997980893	0.4193961997109454	2	0
12	6	2	0.6	0.1	1	0.4132908158087132	1	1	0.2962830998003483	0.570642246128039	1	1
12	7	2	0.6	0.1	1	0.5614246638001494	1	1	0.329362400341779	0.5372056035154816	1	1
12	8	2	0.6	0.1	1	0.5735657158109795	1	1	0.2774355001747608	0.5410591382659395	2	1
12	9	2	0.6	0.1	1	0.4630370997570625	1	1	0.5875381999649107	0.5077188702551125	2	1
12	10	2	0.6	0.1	1	0.5461323780033838	1	1	0.2831749999895692	0.5885773640678609	2	1
12	11	2	0.6	0.1	1	0.4747921616378019	1	1	0.3220281000249088	0.4104723891369821	1	1
12	12	2	0.6	0.1	1	0.520361267763074	1	1	0.3651188998483121	0.5260034901880173	1	1
12	13	2	0.6	0.1	1	0.4253868147783708	1	1	0.3416085001081228	0.4541026064014981	1	1
12	14	2	0.6	0.1	1	0.5235939220890975	1	1	0.3459288002923131	0.444261461122137	1	1
12	15	2	0.6	0.1	1	0.5561185989627849	1	1	0.3200106997974217	0.5374771840508875	2	1
12	16	2	0.6	0.1	1	0.5510230748031266	1	1	0.3195593999698758	0.4063841039965549	2	1
12	17	2	0.6	0.1	1	0.4997295529216849	1	1	0.3587227002717555	0.5457029143546267	2	1
12	18	2	0.6	0.1	1	0.4986009521713738	1	1	0.5106180002912879	0.4506260748253611	1	1
12	19	2	0.6	0.1	1	0.5847609113203397	1	1	0.3672344996593893	0.4291688135098484	1	1
12	20	2	0.6	0.1	1	0.5339824550373348	1	1	0.404326600022614	0.5424309464455463	1	1
13	1	1	0.5	0.5	1	0.4813251331391716	1	2	0.5263374000787735	0.539885055664837	2	0
13	2	1	0.5	0.5	1	0.405289925705155	1	2	0.4599592997692525	0.5032256713467187	2	0
13	3	1	0.5	0.5	1	0.4638957206583431	1	1	0.2503865002654493	0.5821236855867231	1	1
13	4	1	0.5	0.5	1	0.586268858050231	1	1	0.3183990996330976	0.5843143133893853	1	1
13	5	1	0.5	0.5	1	0.5855782421223977	1	1	0.450246799737215	0.517573425573334	1	1
13	6	1	0.5	0.5	1	0.4305214960163756	1	1	0.3252342999912798	0.5523774145073344	2	1
13	7	1	0.5	0.5	1	0.4726956791904741	1	1	0.3506611003540456	0.4597618555894097	2	1
13	8	1	0.5	0.5	1	0.5709712946322211	1	1	0.597032000310719	0.4003523297700464	2	1
13	9	1	0.5	0.5	1	0.5765806587925576	1	1	0.3500332999974489	0.5090692980753279	2	1
13	10	1	0.5	0.5	1	0.4813775583510566	1	1	0.3161595999263227	0.5576272147902919	1	1
13	11	1	0.5	0.5	1	0.5744877406382681	1	1	0.6182534997351468	0.4958549868350243	1	1
13	12	1	0.5	0.5	1	0.4903400048107761	1	1	0.3194249998778105	0.4161195535546726	2	1
13	13	1	0.5	0.5	1	0.5185292960250066	1	1	0.360930799972266	0.5336119587167724	1	1
13	14	1	0.5	0.5	1	0.4562083413104924	1	1	0.4265079000033438	0.5854843928789716	2	1
13	15	1	0.5	0.5	1	0.5279380746777159	1	1	0.2765604997985065	0.4343141816723229	1	1
13	16	1	0.5	0.5	1	0.5771867481607735	1	1	0.4741269000805914	0.5606435120695926	2	1
13	17	1	0.5	0.5	1	0.5874030636591663	1	1	0.309750400017947	0.5382472990936493	1	1
13	18	1	0.5	0.5	1	0.5901993150258862	1	1	0.5749380001798272	0.5082059531561209	1	1
13	19	1	0.5	0.5	1	0.5025344797446357	1	1	0.4900826998054981	0.4714346192883617	1	1
13	20	1	0.5	0.5	1	0.5883987367110337	1	1	0.425174499861896	0.5318251813213853	2	1
14	1	1	0.5	0.5	1	0.5054365901999158	1	2	0.3471929999068379	0.4317855864577265	1	0
14	2	1	0.5	0.5	1	0.4599712872479811	1	2	0.3563009998761117	0.5299645642000093	1	0
14	3	1	0.5	0.5	1	0.5748933382697459	1	2	0.3656834997236729	0.5449512286170397	1	0
14	4	1	0.5	0.5	1	0.444724155071417	1	2	0.3169591999612749	0.419491749039527	1	0
14	5	1	0.5	0.5	1	0.5128787052324133	1	2	0.3811493003740907	0.5884446629683281	2	0
14	6	1	0.5	0.5	1	0.5911219857315927	1	2	0.4423958002589643	0.5039328853321633	2	0
14	7	1	0.5	0.5	1	0.5283021120426916	1	2	0.3237797003239393	0.4240196622186947	1	0
14	8	1	0.5	0.5	1	0.4549747109553379	1	2	0.4154012999497354	0.5580025994254491	2	0
14	9	1	0.5	0.5	1	0.562963568617793	1	2	0.3802164997905493	0.559685479652941	1	0
14	10	1	0.5	0.5	1	0.5902505946821501	1	2	0.3559367000125349	0.4118711547300709	2	0
14	11	1	0.5	0.5	1	0.4214165945819807	1	2	0.2928153998218477	0.4505869552955543	2	0
14	12	1	0.5	0.5	1	0.4520866661040692	1	2	0.28684620000422	0.4181552658441629	2	0
14	13	1	0.5	0.5	1	0.4994270675870185	1	2	0.3956042001955211	0.4466671603581417	1	0
14	14	1	0.5	0.5	1	0.4664161843145167	1	2	0.3931081001646817	0.4711828975398283	2	0
14	15	1	0.5	0.5	1	0.4427589875578178	1	2	0.3539597000926733	0.4312343815286691	1	0
14	16	1	0.5	0.5	1	0.4117519491133819	1	2	0.3409399003721774	0.4989067277020072	1	0
14	17	1	0.5	0.5	1	0.4983194960494964	1	2	0.3267919002100825	0.4294887308103308	2	0
14	18	1	0.5	0.5	1	0.5582004217807508	1	2	0.332425800152123	0.4364036818684892	1	0
14	19	1	0.5	0.5	1	0.521813382930622	1	2	0.5015967995859683	0.4655881761448272	2	0
14	20	1	0.5	0.5	1	0.4609067106531816	1	2	0.3115862002596259	0.4842206370042821	2	0
15	1	2	0.6	0.1	1	0.4899856511427925	1	1	0.2620244002901018	0.4574896914175735	2	1
15	2	2	0.6	0.1	1	0.5071879900461451	1	1	0.2493050000630319	0.5735371894541335	2	1
15	3	2	0.6	0.1	1	0.4556922478775588	1	1	0.3110436000861228	0.4436590443981001	1	1
15	4	2	0.6	0.1	1	0.5381388643472482	1	2	0.294373800046742	0.4834546098871627	2	0
15	5	2	0.6	0.1	1	0.5091345452701346	1	2	0.2886557998135686	0.5113300297104632	2	0
15	6	2	0.6	0.1	1	0.5972630199713207	1	2	0.2787897000089288	0.4992258206825029	2	0
15	7	2	0.6	0.1	1	0.5018804438543564	1	1	0.2365657999180257	0.5918442150831145	2	1
15	8	2	0.6	0.1	1	0.4404951707798621	1	1	0.002519999630749226	0.4697232039957752	1	1
15	9	2	0.6	0.1	1	0.4621687301325507	1	1	0.2708249003626406	0.4476248597507232	2	1
15	10	2	0.6	0.1	1	0.4866547800808881	1	1	0.2513975002802908	0.4911575583700243	2	1
15	11	2	0.6	0.1	1	0.4420476369632156	1	1	0.2827836996875703	0.4670900829948447	1	1
15	12	2	0.6	0.1	1	0.5838268185879375	1	1	0.3069972996599972	0.4628545698617644	1	1
15	13	2	0.6	0.1	1	0.563601061449955	1	1	0.3289299001917243	0.5906588575546543	2	1
15	14	2	0.6	0.1	1	0.4981324768692261	1	1	0.3543806998059154	0.4755470480018483	2	1
15	15	2	0.6	0.1	1	0.5726658506448377	1	1	0.3862092001363635	0.4728039175114488	1	1
15	16	2	0.6	0.1	1	0.5265872983800813	1	1	0.4303439003415406	0.5609446327210856	1	1
15	17	2	0.6	0.1	1	0.4488931815055761	1	1	0.4090799000114202	0.5504451570382126	2	1
15	18	2	0.6	0.1	1	0.406678043338297	1	1	0.5238908999599516	0.5072489117538049	1	1
15	19	2	0.6	0.1	1	0.4708026886719546	1	1	0.437538499943912	0.5333893680451069	1	1
15	20	2	0.6	0.1	1	0.5836844643735866	1	1	0.3518746001645923	0.4077782072951396	1	1
16	1	2	0.1	0.6	2	0.4065678010250143	1	1	0.4856090000830591	0.4427179642552821	2	0
16	2	2	0.1	0.6	2	0.4340497386533086	1	1	0.5989290000870824	0.5571758915164968	2	0
16	3	2	0.1	0.6	2	0.5598014348956689	1	2	0.3502401001751423	0.4148826807524866	2	1
16	4	2	0.1	0.6	2	0.4811838916176266	1	2	0.9077198002487421	0.5955182742253207	1	1
16	5	2	0.1	0.6	2	0.5883787678392818	1	2	0.3650211999192834	0.5315774471876193	2	1
16	6	2	0.1	0.6	2	0.4073298595487071	1	2	0.1308557000011206	0.4997452951392509	2	1
16	7	2	0.1	0.6	2	0.4079315584093086	1	2	0.438790800049901	0.5339267873330565	1	1
16	8	2	0.1	0.6	2	0.4124571700084667	1	2	0.3882844997569919	0.4577529089978822	1	1
16	9	2	0.1	0.6	2	0.5922960422424256	1	2	0.6878061997704208	0.479063478393162	2	1
16	10	2	0.1	0.6	2	0.4269660437384031	1	2	0.3586486997082829	0.4207458719162624	1	1
16	11	2	0.1	0.6	2	0.5968610989379323	1	2	1.074967300053686	0.5082391417904092	2	1
16	12	2	0.1	0.6	2	0.4876704006111545	1	2	0.4584298003464937	0.5116989622234116	1	1
16	13	2	0.1	0.6	2	0.5269715691462351	1	2	0.4629967003129423	0.5909226228712283	1	1
16	14	2	0.1	0.6	2	0.4496238495056082	1	2	0.3735027001239359	0.5020046161287636	1	1
16	15	2	0.1	0.6	2	0.5167529158059564	1	2	0.5200160001404583	0.4482834082369751	1	1
16	16	2	0.1	0.6	2	0.5510311991905112	1	2	0.4112603003159165	0.4356372662366712	1	1
16	17	2	0.1	0.6	2	0.4812969948239898	1	2	0.5540709998458624	0.4036124208856474	2	1
16	18	2	0.1	0.6	2	0.5168399044110743	1	2	0.6773103000596166	0.4099882087539881	2	1
16	19	2	0.1	0.6	2	0.5162815148166661	1	2	0.3546398002654314	0.5754447399045441	2	1
16	20	2	0.1	0.6	2	0.4772380295933814	1	2	0.2961204000748694	0.5374535846855979	2	1
17	1	1	0.5	0.5	1	0.5674218547562746	0	n/a	n/a	n/a	n/a	n/a
17	2	1	0.5	0.5	1	0.4159643194735031	1	1	0.5516258999705315	0.4372908240931244	2	1
17	3	1	0.5	0.5	1	0.5536622331803445	1	1	0.6563993999734521	0.4302624704030965	2	1
17	4	1	0.5	0.5	1	0.5388761595421723	1	2	0.2721713003702462	0.5689120027432765	1	0
17	5	1	0.5	0.5	1	0.4874291575058188	1	2	0.3045139000751078	0.5835624427424138	2	0
17	6	1	0.5	0.5	1	0.4511966798693756	1	2	0.3356784000061452	0.5488653384201694	2	0
17	7	1	0.5	0.5	1	0.514822429640986	1	2	0.3358148001134396	0.4425337874127595	1	0
17	8	1	0.5	0.5	1	0.5706481894552974	1	2	0.3962328997440636	0.4219264954527637	2	0
17	9	1	0.5	0.5	1	0.5510487297637183	1	2	0.3650723001919687	0.5275715347871821	2	0
17	10	1	0.5	0.5	1	0.4408957645214384	1	2	0.352375699672848	0.4924936497448154	2	0
17	11	1	0.5	0.5	1	0.4743063828743615	1	1	0.2720857001841068	0.4838900519471107	2	1
17	12	1	0.5	0.5	1	0.5680061438903332	1	1	0.2590589001774788	0.5598136144174721	1	1
17	13	1	0.5	0.5	1	0.5936189204905453	1	1	0.4417257001623511	0.5278164092947306	2	1
17	14	1	0.5	0.5	1	0.5083402386909984	1	1	0.3004557001404464	0.5911061449536087	1	1
17	15	1	0.5	0.5	1	0.4105813237456282	1	1	0.4684791001491249	0.5766357211236737	1	1
17	16	1	0.5	0.5	1	0.5471144139265836	1	1	0.4138354999013245	0.4437876650785495	1	1
17	17	1	0.5	0.5	1	0.5850771463868475	1	1	0.426084800157696	0.5692863901584012	2	1
17	18	1	0.5	0.5	1	0.5372979964901071	1	1	0.3290317999199033	0.4176677780286016	1	1
17	19	1	0.5	0.5	1	0.4408771073673229	1	1	0.3508846000768244	0.5999554772145381	2	1
17	20	1	0.5	0.5	1	0.4648752443417743	1	1	0.4143814002163708	0.444426363041751	1	1
18	1	1	0.5	0.5	1	0.4654898746933835	1	2	0.4979110001586378	0.5518347132203709	1	0
18	2	1	0.5	0.5	1	0.4070152472949767	1	2	0.463689099997282	0.5061591447052671	2	0
18	3	1	0.5	0.5	1	0.5746535457906414	1	2	0.2841739999130368	0.4635154762814246	1	0
18	4	1	0.5	0.5	1	0.4345797759155261	1	2	0.3005353002808988	0.5195911127941886	2	0
18	5	1	0.5	0.5	1	0.5589701627527952	1	2	0.324987200088799	0.43056090544728	1	0
18	6	1	0.5	0.5	1	0.5680375343897748	1	2	0.3353643999435008	0.4959189070998637	2	0
18	7	1	0.5	0.5	1	0.4549216944987784	1	2	0.6899977000430226	0.4289140695228155	2	0
18	8	1	0.5	0.5	1	0.592728946019439	1	2	0.4402208998799324	0.449052698404558	2	0
18	9	1	0.5	0.5	1	0.5950225996736324	1	2	0.2891744999215007	0.5423490671157698	1	0
18	10	1	0.5	0.5	1	0.4205383338413292	1	2	0.5324307000264525	0.4458930296096833	1	0
18	11	1	0.5	0.5	1	0.4763883121584639	1	2	0.3847268000245094	0.4220777537597801	1	0
18	12	1	0.5	0.5	1	0.4942924957580851	1	2	0.4077523001469672	0.5793065434749544	2	0
18	13	1	0.5	0.5	1	0.5591717305214656	1	2	0.4023239002563059	0.5320401021244676	2	0
18	14	1	0.5	0.5	1	0.4231506610132885	1	2	0.3397239004261792	0.4819804538883218	2	0
18	15	1	0.5	0.5	1	0.5277942859337086	1	2	0.5377747002057731	0.4234536585212324	2	0
18	16	1	0.5	0.5	1	0.4764202986031445	1	2	0.6197147001512349	0.5337758215394307	1	0
18	17	1	0.5	0.5	1	0.4866465984295482	1	2	0.5524895996786654	0.5456356294906765	2	0
18	18	1	0.5	0.5	1	0.5522910442239745	1	2	0.4478360000066459	0.5685241797040349	1	0
18	19	1	0.5	0.5	1	0.5433561136171869	1	2	0.4494722001254559	0.4318050813590001	2	0
18	20	1	0.5	0.5	1	0.5177407434895271	1	2	0.4561936999671161	0.5869749670198643	1	0
19	1	2	0.6	0.1	1	0.4036359358884097	1	2	0.4305485002696514	0.5430117090328614	2	0
19	2	2	0.6	0.1	1	0.5814544259896525	1	1	0.6059294999577105	0.57252263010038	1	1
19	3	2	0.6	0.1	1	0.5351517456201368	1	1	0.4037477001547813	0.4699384958703112	1	1
19	4	2	0.6	0.1	1	0.5505613337527705	1	1	0.3340580002404749	0.4085332378549815	1	1
19	5	2	0.6	0.1	1	0.4380841735659294	1	1	0.3280088999308646	0.5094830410737032	1	1
19	6	2	0.6	0.1	1	0.4261428437302136	1	1	0.3557465001940727	0.472464031376346	2	1
19	7	2	0.6	0.1	1	0.5453247026806807	1	1	0.4249605997465551	0.5403099500134967	1	1
19	8	2	0.6	0.1	1	0.5024383412723559	1	1	0.5638271998614073	0.5364007274625706	1	1
19	9	2	0.6	0.1	1	0.4188308130991963	1	1	0.5246120998635888	0.4022177719517139	2	1
19	10	2	0.6	0.1	1	0.5174776033223781	1	1	0.5781070999801159	0.4785131575204458	1	1
19	11	2	0.6	0.1	1	0.4935918969838702	1	1	0.5152680999599397	0.4364287233531215	2	1
19	12	2	0.6	0.1	1	0.4154179620702522	1	1	0.3935667998157442	0.5092652777276404	1	1
19	13	2	0.6	0.1	1	0.5749137537878332	1	1	0.5822654999792576	0.4131295553259268	2	1
19	14	2	0.6	0.1	1	0.4725756125615542	1	1	0.3765761996619403	0.4592011473861557	1	1
19	15	2	0.6	0.1	1	0.4770164118578039	1	1	0.8332179002463818	0.4689096271323921	1	1
19	16	2	0.6	0.1	1	0.4235945891546556	1	1	1.144049200229347	0.4774059493538246	2	1
19	17	2	0.6	0.1	1	0.427116553760933	1	1	0.4668005001731217	0.4038311535352369	2	1
19	18	2	0.6	0.1	1	0.4487933015080291	1	1	0.4615663001313806	0.5076960465794198	1	1
19	19	2	0.6	0.1	1	0.4693589288755994	1	1	0.5579305998980999	0.5058610493382885	1	1
19	20	2	0.6	0.1	1	0.5773437049868745	1	1	0.5544936000369489	0.549323695692408	1	1
20	1	1	0.5	0.5	1	0.5475992199103211	1	2	0.3450058996677399	0.4944252847536248	1	0
20	2	1	0.5	0.5	1	0.4815672973361302	1	2	0.3558057001791894	0.5130826583257203	1	0
20	3	1	0.5	0.5	1	0.4159467264907272	1	2	0.484338799957186	0.4348515582838928	1	0
20	4	1	0.5	0.5	1	0.5854417361561525	1	2	0.3137175999581814	0.5146298872756583	2	0
20	5	1	0.5	0.5	1	0.5055783386599952	1	2	0.2766968002542853	0.4731572771337369	1	0
20	6	1	0.5	0.5	1	0.4269713980429616	1	2	0.3967287996783853	0.4391495400859723	2	0
20	7	1	0.5	0.5	1	0.4526546264459717	1	2	0.3557839998975396	0.5026219180986616	2	0
20	8	1	0.5	0.5	1	0.5335068527149568	1	2	0.3286445001140237	0.405028295242424	2	0
20	9	1	0.5	0.5	1	0.4731741341766248	1	2	0.3630216000601649	0.5970440857101088	1	0
20	10	1	0.5	0.5	1	0.5420663143534109	1	2	0.3690317999571562	0.4095402939270104	1	0
20	11	1	0.5	0.5	1	0.5091213904727858	1	2	0.4774464000947773	0.5666012336618216	2	0
20	12	1	0.5	0.5	1	0.5864283515144307	1	2	0.3819502000696957	0.4211528931197124	2	0
20	13	1	0.5	0.5	1	0.4000348763374103	1	2	0.4836621000431478	0.4468035163865338	2	0
20	14	1	0.5	0.5	1	0.48699043478907	1	2	0.5111789000220597	0.5810126706779815	1	0
20	15	1	0.5	0.5	1	0.4266499329565319	1	2	0.4597537997178733	0.5334437516073552	1	0
20	16	1	0.5	0.5	1	0.4449908658436021	1	2	0.4001595000736415	0.5298789384545429	2	0
20	17	1	0.5	0.5	1	0.4001011767660086	1	2	0.5023213000968099	0.4245021274728512	2	0
20	18	1	0.5	0.5	1	0.5948222584690916	1	2	0.3993901000358164	0.4008960997638409	1	0
20	19	1	0.5	0.5	1	0.4928391005083358	1	2	0.4059603000059724	0.5894674340892574	2	0
20	20	1	0.5	0.5	1	0.5124359674684099	1	2	0.4513105000369251	0.5568726462137285	2	0
