blockNum	trialNum	condition	pWin1	pWin2	optimalResponse	preStimulusDelay	responded	response	rt	preFeedbackDelay	outcome	optimal
1	1	2	0.6	0.1	1	0.5732458558015481	0	n/a	n/a	n/a	n/a	n/a
1	2	2	0.6	0.1	1	0.5921501229395193	1	1	0.6783332000486553	0.5310865055973961	1	1
1	3	2	0.6	0.1	1	0.4412809606748609	1	1	0.4189976998604834	0.5242115655483627	2	1
1	4	2	0.6	0.1	1	0.533499755412051	1	2	0.6627568998374045	0.5931469143822978	2	0
1	5	2	0.6	0.1	1	0.5866473847583993	1	1	0.3079364998266101	0.4662022486900981	1	1
1	6	2	0.6	0.1	1	0.4478895416309984	1	1	0.270306299906224	0.4767191434337621	2	1
1	7	2	0.6	0.1	1	0.4676320689795455	1	2	0.2473174999468029	0.5671788729276103	2	0
1	8	2	0.6	0.1	1	0.5934470251205946	1	1	0.3654889003373682	0.5534941061051513	1	1
1	9	2	0.6	0.1	1	0.5746037052242415	1	2	0.2908016000874341	0.4158212549260352	2	0
1	10	2	0.6	0.1	1	0.4450109221874743	1	2	0.2483685002662241	0.5084815872561727	2	0
1	11	2	0.6	0.1	1	0.5896117038248491	1	1	0.202676699962467	0.5801891454041296	1	1
1	12	2	0.6	0.1	1	0.5145004345655548	1	1	0.4570275000296533	0.5657987143945168	1	1
1	13	2	0.6	0.1	1	0.4905639555322581	1	2	0.3707209001295269	0.5758763639941813	2	0
1	14	2	0.6	0.1	1	0.5167151595665676	1	2	0.3085349998436868	0.5140346454929268	2	0
1	15	2	0.6	0.1	1	0.4358884775201635	1	1	0.2240709001198411	0.53956862057581	1	1
1	16	2	0.6	0.1	1	0.4007605509809814	1	1	0.4135938999243081	0.4890392184993091	1	1
1	17	2	0.6	0.1	1	0.5467101193587957	1	2	0.2674801996909082	0.4289089978821767	2	0
1	18	2	0.6	0.1	1	0.5707188501887874	1	1	0.2079743999056518	0.4015573814984215	1	1
1	19	2	0.6	0.1	1	0.4555822645307123	1	1	0.263516899663955	0.5403373118532393	1	1
1	20	2	0.6	0.1	1	0.5765539889721527	1	1	0.3690313999541104	0.4384950849748986	2	1
2	1	2	0.6	0.1	1	0.4322547146257897	1	1	1.872077399864793	0.5854655426042659	2	1
2	2	2	0.6	0.1	1	0.5527432034902888	1	2	0.2536444999277592	0.523534819973711	2	0
2	3	2	0.6	0.1	1	0.4420273096744543	1	1	0.2307724002748728	0.5238571218632866	2	1
2	4	2	0.6	0.1	1	0.5887803760586198	1	2	0.2906117001548409	0.4523894491720829	2	0
2	5	2	0.6	0.1	1	0.4183474421486044	1	1	0.203231000341475	0.5494772485215427	2	1
2	6	2	0.6	0.1	1	0.4632225788868357	1	2	0.166771600022912	0.5805786872535261	2	0
2	7	2	0.6	0.1	1	0.4028828060527876	1	2	0.3213279000483453	0.4966542009159322	2	0
2	8	2	0.6	0.1	1	0.5021635049999962	1	1	0.2614319999702275	0.478821202539276	1	1
2	9	2	0.6	0.1	1	0.5736486765042164	1	1	0.2389985998161137	0.4457620784022199	1	1
2	10	2	0.6	0.1	1	0.503172898943399	1	2	0.1795405996963382	0.5101723392999952	2	0
2	11	2	0.6	0.1	1	0.5072986331620316	1	1	0.2532960004173219	0.5433216762619859	1	1
2	12	2	0.6	0.1	1	0.4323386899357077	1	1	0.2626534998416901	0.549688607833539	2	1
2	13	2	0.6	0.1	1	0.587116040495642	1	2	0.3465710999444127	0.4569844830392826	2	0
2	14	2	0.6	0.1	1	0.5390708548732683	1	2	0.1597845000214875	0.4039535584459349	1	0
2	15	2	0.6	0.1	1	0.5924260283275129	1	2	0.5336921000853181	0.5257308503593537	1	0
2	16	2	0.6	0.1	1	0.5083760522504019	1	2	0.1437058001756668	0.4305970443233883	2	0
2	17	2	0.6	0.1	1	0.4866310117718011	1	2	0.2633366999216378	0.5503263381983128	2	0
2	18	2	0.6	0.1	1	0.5431656310743405	1	1	0.2729155998677015	0.5108448848615864	2	1
2	19	2	0.6	0.1	1	0.4708699515426783	1	1	0.2180011998862028	0.4477267213216723	2	1
2	20	2	0.6	0.1	1	0.5432197740924734	1	1	0.185363800264895	0.4912854243912537	2	1
3	1	1	0.5	0.5	1	0.4653043303119098	1	1	1.321294900029898	0.4698642692534742	1	1
3	2	1	0.5	0.5	1	0.5675819840292042	1	2	0.1128094000741839	0.5123851150639478	1	0
3	3	1	0.5	0.5	1	0.5678650822056452	1	1	0.2385110999457538	0.4955583930779787	1	1
3	4	1	0.5	0.5	1	0.5603075710903045	1	1	0.2355558001436293	0.503957481192055	2	1
3	5	1	0.5	0.5	1	0.5870486330747458	1	2	0.2682640999555588	0.464254538971086	2	0
3	6	1	0.5	0.5	1	0.4046985880574241	1	2	0.2121762000024319	0.5640486988861223	2	0
3	7	1	0.5	0.5	1	0.5103795885940999	1	1	0.2141081998124719	0.4352919850835855	1	1
3	8	1	0.5	0.5	1	0.4298900944009518	1	1	0.2107329000718892	0.4046108482891748	2	1
3	9	1	0.5	0.5	1	0.5351599276259947	1	2	0.2070562001317739	0.5515124436141987	1	0
3	10	1	0.5	0.5	1	0.5910355117307886	1	1	0.1365216998383403	0.4399966376281089	1	1
3	11	1	0.5	0.5	1	0.4343464495544917	1	2	0.2195506999269128	0.5610986618659921	1	0
3	12	1	0.5	0.5	1	0.4257822020470874	1	1	0.2053340999409556	0.5080642714819001	2	1
3	13	1	0.5	0.5	1	0.4563617068502605	1	2	0.2257109000347555	0.513539873010621	1	0
3	14	1	0.5	0.5	1	0.520949566147711	1	1	0.03699079994112253	0.4943275443537986	2	1
3	15	1	0.5	0.5	1	0.4036813118471727	1	1	0.09397439984604716	0.4809577641499209	2	1
3	16	1	0.5	0.5	1	0.4847523707448539	1	2	0.2444023997522891	0.5776433204129555	1	0
3	17	1	0.5	0.5	1	0.5641412734034477	1	1	0.3281205003149807	0.5652539390534832	2	1
3	18	1	0.5	0.5	1	0.4594364163374058	1	2	0.1410638000816107	0.5229553386929304	2	0
3	19	1	0.5	0.5	1	0.447267838647027	1	2	0.1107582999393344	0.531849858316737	1	0
3	20	1	0.5	0.5	1	0.4581783250912623	1	1	0.2132594003342092	0.476767903115606	2	1
4	1	1	0.5	0.5	1	0.4803469550794642	0	n/a	n/a	n/a	n/a	n/a
4	2	1	0.5	0.5	1	0.4053216559824198	1	1	0.7501638000831008	0.5482580979864875	2	1
4	3	1	0.5	0.5	1	0.5872884880918401	1	2	0.2144968002103269	0.5984992014792323	2	0
4	4	1	0.5	0.5	1	0.5688660011767919	1	2	0.2186361001804471	0.4620478112685051	2	0
4	5	1	0.5	0.5	1	0.5867962669742663	1	2	0.2236438998952508	0.5091167145071215	1	0
4	6	1	0.5	0.5	1	0.4573139670877733	1	1	0.2723945002071559	0.5882382465121057	1	1
4	7	1	0.5	0.5	1	0.535887912266986	1	1	0.273080600425601	0.5796350256437484	2	1
4	8	1	0.5	0.5	1	0.5414106483392258	1	1	0.1871504001319408	0.5458755916045152	2	1
4	9	1	0.5	0.5	1	0.4412323301628421	1	2	0.1610865001566708	0.5869450720728886	2	0
4	10	1	0.5	0.5	1	0.5711396030766996	1	2	0.176564599853009	0.4660713947831121	2	0
4	11	1	0.5	0.5	1	0.4981336288672669	1	2	0.1429774998687208	0.585534904466527	1	0
4	12	1	0.5	0.5	1	0.550640759001772	1	1	0.2111200001090765	0.5818267246232227	2	1
4	13	1	0.5	0.5	1	0.42123180830801	1	1	0.2682503000833094	0.5286303036429912	2	1
4	14	1	0.5	0.5	1	0.4807536404935089	1	1	0.2673475998453796	0.565746931994288	2	1
4	15	1	0.5	0.5	1	0.5435294019740253	1	1	0.2562573002651334	0.4687541988805404	1	1
4	16	1	0.5	0.5	1	0.4233651245485761	1	1	0.1615404998883605	0.4989730802881701	2	1
4	17	1	0.5	0.5	1	0.4589255529573866	1	2	0.2105966000817716	0.4021763689019597	2	0
4	18	1	0.5	0.5	1	0.5467656088237359	1	2	0.2895423001609743	0.5663909856767023	2	0
4	19	1	0.5	0.5	1	0.4809490472404135	1	1	0.3200373998843133	0.5574975747864952	1	1
4	20	1	0.5	0.5	1	0.5519229878247127	1	2	0.2682137000374496	0.4471677288567866	2	0
5	1	2	0.6	0.1	1	0.4396346761114774	1	2	0.7368115000426769	0.5031201473477646	2	0
5	2	2	0.6	0.1	1	0.4095366954905578	1	2	0.1590339997783303	0.4900307884461345	2	0
5	3	2	0.6	0.1	1	0.50900828392847	1	2	0.0009997999295592308	0.4669486331123502	2	0
5	4	2	0.6	0.1	1	0.5288691219598735	1	2	0.1556508997455239	0.4550811778587385	2	0
5	5	2	0.6	0.1	1	0.4063995853091155	1	1	0.2091896999627352	0.5024999831088636	2	1
5	6	2	0.6	0.1	1	0.443689573110624	1	1	0.1909047001972795	0.4477110360454733	1	1
5	7	2	0.6	0.1	1	0.5981367576532181	1	1	0.004078699741512537	0.4797420327298854	1	1
5	8	2	0.6	0.1	1	0.5026605962734565	1	1	0.1474780002608895	0.4777526818441043	2	1
5	9	2	0.6	0.1	1	0.5913912637481125	1	2	0.2652579001151025	0.5727517054056054	2	0
5	10	2	0.6	0.1	1	0.4434670430798102	1	2	0.2053265003487468	0.5048057270545186	2	0
5	11	2	0.6	0.1	1	0.525948570509675	1	2	0.1864215000532568	0.5731404987040181	1	0
5	12	2	0.6	0.1	1	0.5325619757100841	1	1	0.0004070000723004341	0.4061072196438258	1	1
5	13	2	0.6	0.1	1	0.5197751365875679	1	1	0.0004130001179873943	0.4657902733564032	1	1
5	14	2	0.6	0.1	1	0.57104375505803	1	1	0.3100621001794934	0.5168826017182231	2	1
5	15	2	0.6	0.1	1	0.5697239069267004	1	2	0.0378200002014637	0.4888617500966728	2	0
5	16	2	0.6	0.1	1	0.5192061133451042	1	1	0.2671206002123654	0.478235678438235	1	1
5	17	2	0.6	0.1	1	0.5752507024197635	1	1	0.2833777000196278	0.5395801020955523	2	1
5	18	2	0.6	0.1	1	0.4816333610155191	1	1	0.1419158997014165	0.4894425305685611	2	1
5	19	2	0.6	0.1	1	0.4510019718993126	1	2	0.1531189000234008	0.5417671648022846	2	0
5	20	2	0.6	0.1	1	0.5269113136741306	1	2	0.3461036998778582	0.4082771341481303	1	0
6	1	1	0.5	0.5	1	0.5937433760399276	1	1	1.234330399893224	0.5387228965035502	2	1
6	2	1	0.5	0.5	1	0.566939198028389	1	2	0.1397401997819543	0.5823521448451484	2	0
6	3	1	0.5	0.5	1	0.4006626408459727	1	1	0.2263341997750103	0.4913871066119629	2	1
6	4	1	0.5	0.5	1	0.4322772332022182	1	2	0.2197296000085771	0.4754410094585932	2	0
6	5	1	0.5	0.5	1	0.4596946598581239	1	2	0.2253724001348019	0.5690684265136693	1	0
6	6	1	0.5	0.5	1	0.5435655510638702	1	1	0.2149541000835598	0.4666087360081222	2	1
6	7	1	0.5	0.5	1	0.5774777186872426	1	1	0.1599002997390926	0.5670149100306123	2	1
6	8	1	0.5	0.5	1	0.5982928260877837	1	2	0.3091084999032319	0.5182871983585468	2	0
6	9	1	0.5	0.5	1	0.5855151517162559	1	2	0.0004059001803398132	0.4271304609839839	2	0
6	10	1	0.5	0.5	1	0.4494236240587463	1	2	0.08810390019789338	0.4449535715645091	1	0
6	11	1	0.5	0.5	1	0.4485662314822395	1	1	0.0004226001910865307	0.5792502120654988	2	1
6	12	1	0.5	0.5	1	0.5757941950861838	1	2	0.07718620030209422	0.5758222728209481	1	0
6	13	1	0.5	0.5	1	0.4004679501507402	1	1	0.1861505000852048	0.5655805526893904	1	1
6	14	1	0.5	0.5	1	0.4570485107311517	1	1	0.1090378002263606	0.5640023888571368	2	1
6	15	1	0.5	0.5	1	0.479401426539388	1	2	0.2120472998358309	0.4494250268022854	2	0
6	16	1	0.5	0.5	1	0.4544988155967913	1	1	1.844920599833131	0.5930740889278889	2	1
6	17	1	0.5	0.5	1	0.4075707336551373	1	2	0.1936241998337209	0.5708601754714602	2	0
6	18	1	0.5	0.5	1	0.5516608900475598	1	1	0.01020130002871156	0.5780329386108867	1	1
6	19	1	0.5	0.5	1	0.4355684124313136	1	1	0.1532486001960933	0.4419128302117273	2	1
6	20	1	0.5	0.5	1	0.5178987768076849	1	2	0.5694837998598814	0.578558411717548	2	0
7	1	2	0.1	0.6	2	0.4597736348747802	1	1	0.6832162998616695	0.4643212674434969	2	0
7	2	2	0.1	0.6	2	0.4699274257968168	1	2	0.1058109998703003	0.5377451774558506	2	1
7	3	2	0.1	0.6	2	0.4466837534481891	1	2	0.08744229981675744	0.5652275550737464	1	1
7	4	2	0.1	0.6	2	0.4310794679548841	1	1	0.1298540001735091	0.4365973637097202	2	0
7	5	2	0.1	0.6	2	0.45238390456144	1	1	0.0005148998461663723	0.5167393442792907	2	0
7	6	2	0.1	0.6	2	0.4818496536721366	1	2	0.0004100999794900417	0.4580976278272614	2	1
7	7	2	0.1	0.6	2	0.4939516572289022	1	1	0.06809019995853305	0.4618604560513705	2	0
7	8	2	0.1	0.6	2	0.4683820448714529	1	2	0.001020799856632948	0.4922561272422639	1	1
7	9	2	0.1	0.6	2	0.5769853294176605	1	1	0.1263314997777343	0.494950341754216	2	0
7	10	2	0.1	0.6	2	0.538059255131919	1	2	0.1287250998429954	0.5253696766771979	1	1
7	11	2	0.1	0.6	2	0.538007375418468	1	1	0.2186945998109877	0.5419847647069707	2	0
7	12	2	0.1	0.6	2	0.4344210114352229	1	2	0.1820835997350514	0.4366046860533481	2	1
7	13	2	0.1	0.6	2	0.5982302822894565	1	2	0.1714150998741388	0.5235851029947833	1	1
7	14	2	0.1	0.6	2	0.554828193424878	1	1	0.0004147998988628387	0.5333209102497987	2	0
7	15	2	0.1	0.6	2	0.4258761744889008	1	2	0.1508241998963058	0.4034622293932849	2	1
7	16	2	0.1	0.6	2	0.5475345918450384	1	1	0.06848679995164275	0.4488247225675972	2	0
7	17	2	0.1	0.6	2	0.5900872652028928	1	1	0.0004086000844836235	0.5346435353651614	2	0
7	18	2	0.1	0.6	2	0.5976025061513122	1	2	0.2288985997438431	0.5994726355439386	1	1
7	19	2	0.1	0.6	2	0.5359103923316938	1	1	0.08857549959793687	0.4783927587497259	1	0
7	20	2	0.1	0.6	2	0.4346990582155003	1	2	0.251116800121963	0.4038107245016473	1	1
8	1	1	0.5	0.5	1	0.487812442084061	1	1	0.3834743998013437	0.5399155651663077	1	1
8	2	1	0.5	0.5	1	0.5565963589605153	1	1	0.291026699822396	0.5104417597236299	2	1
8	3	1	0.5	0.5	1	0.4623996223153834	1	1	0.2979744002223015	0.4371830641880661	2	1
8	4	1	0.5	0.5	1	0.4376700792869322	1	2	0.07819079980254173	0.5124998675240751	2	0
8	5	1	0.5	0.5	1	0.5427254240178671	1	2	0.001476400066167116	0.4783509918447181	1	0
8	6	1	0.5	0.5	1	0.5936468338444388	1	1	0.1920106001198292	0.4855608201383452	2	1
8	7	1	0.5	0.5	1	0.450095077932779	1	1	0.2164356000721455	0.5580106231554726	2	1
8	8	1	0.5	0.5	1	0.4773184549786612	1	1	0.1385473003610969	0.5795068638163345	1	1
8	9	1	0.5	0.5	1	0.5410558636260039	1	1	0.07774029998108745	0.4338507329880115	2	1
8	10	1	0.5	0.5	1	0.4379114614841442	1	2	0.2715393998660147	0.5112919140490967	2	0
8	11	1	0.5	0.5	1	0.5367789821545359	1	1	0.7155985999852419	0.4021570412643796	2	1
8	12	1	0.5	0.5	1	0.4356465129199624	1	1	0.1831865003332496	0.5960146589940408	2	1
8	13	1	0.5	0.5	1	0.5028626646973546	1	2	0.2250949000008404	0.5685096890378162	1	0
8	14	1	0.5	0.5	1	0.493936877014096	1	1	0.09311249991878867	0.4978882079179811	2	1
8	15	1	0.5	0.5	1	0.5481961669138441	1	2	0.0004095002077519894	0.570282594093477	2	0
8	16	1	0.5	0.5	1	0.5022430039038501	1	1	0.1693009999580681	0.4248215345397347	1	1
8	17	1	0.5	0.5	1	0.5704884485323033	1	1	0.1164118996821344	0.4737699361243541	2	1
8	18	1	0.5	0.5	1	0.4713713547541338	1	2	0.5529868002049625	0.4750646722885747	2	0
8	19	1	0.5	0.5	1	0.4861221324970206	1	1	0.4093601000495255	0.5824049016017181	2	1
8	20	1	0.5	0.5	1	0.5823123168175646	1	2	0.5355663998052478	0.4810706981245241	2	0
9	1	2	0.6	0.1	1	0.4120184575389201	1	1	0.3943537999875844	0.5997279050244317	2	1
9	2	2	0.6	0.1	1	0.4311276934075374	1	2	0.2102371999062598	0.4065246576601746	2	0
9	3	2	0.6	0.1	1	0.4613894587631882	1	2	0.2019213000312448	0.5414847343543291	2	0
9	4	2	0.6	0.1	1	0.5324150703096006	1	2	0.09884970029816031	0.5944098527371964	2	0
9	5	2	0.6	0.1	1	0.4177168766724914	1	2	0.1228806995786726	0.4252654861947263	2	0
9	6	2	0.6	0.1	1	0.4910699045041822	1	2	0.2700805999338627	0.5301403136715861	2	0
9	7	2	0.6	0.1	1	0.4032783167481873	1	2	0.2183224000036716	0.4402336221900872	2	0
9	8	2	0.6	0.1	1	0.4816026492340695	1	2	0.02979139983654022	0.5348869917826333	2	0
9	9	2	0.6	0.1	1	0.5230675861310092	1	2	0.05074220011010766	0.4441728159929094	2	0
9	10	2	0.6	0.1	1	0.5712011740949949	1	2	0.2447003996931016	0.4594087128144216	2	0
9	11	2	0.6	0.1	1	0.5968260864596506	1	2	0.0005222000181674957	0.5737842916956638	2	0
9	12	2	0.6	0.1	1	0.4213608157488974	1	2	0.1930948998779058	0.5181398435571747	2	0
9	13	2	0.6	0.1	1	0.4587735679428244	1	2	0.2041719001717865	0.5411876963739402	1	0
9	14	2	0.6	0.1	1	0.5002726219419914	1	1	0.6322980998083949	0.5543376583354014	1	1
9	15	2	0.6	0.1	1	0.587843118083055	1	1	0.1984888999722898	0.5631529164929454	2	1
9	16	2	0.6	0.1	1	0.4152052169554744	1	1	0.2471234002150595	0.5389975161565764	2	1
9	17	2	0.6	0.1	1	0.5194068197597599	1	2	0.2154263001866639	0.4987070124893465	2	0
9	18	2	0.6	0.1	1	0.4438076757352633	1	1	0.2305155997164547	0.4885459836967392	1	1
9	19	2	0.6	0.1	1	0.4609883146057224	1	1	0.01344759995117784	0.4167580281570077	2	1
9	20	2	0.6	0.1	1	0.4236056273455292	1	2	0.3621302996762097	0.5412445922213698	2	0
10	1	1	0.5	0.5	1	0.5091460364819876	1	2	1.639232999645174	0.427606013141436	2	0
10	2	1	0.5	0.5	1	0.5606255324001594	1	2	0.003370300401002169	0.5294399645359171	2	0
10	3	1	0.5	0.5	1	0.422073551655427	1	2	0.2578671998344362	0.4102153118273173	2	0
10	4	1	0.5	0.5	1	0.5726575234447739	1	2	0.2385034998878837	0.4513453437539267	2	0
10	5	1	0.5	0.5	1	0.5145302366650404	1	2	0.0004408000968396664	0.4501673171970497	1	0
10	6	1	0.5	0.5	1	0.5670284920020776	1	1	0.04156510019674897	0.4643425653624284	2	1
10	7	1	0.5	0.5	1	0.5105895657482862	1	2	0.2444980000145733	0.4930274768376576	1	0
10	8	1	0.5	0.5	1	0.5516001585697865	1	2	0.1013492001220584	0.4180577940897349	2	0
10	9	1	0.5	0.5	1	0.4045263647200113	1	1	0.3826152002438903	0.5162311662790898	2	1
10	10	1	0.5	0.5	1	0.4466864618131307	1	2	0.2061294997110963	0.5406332259748035	1	0
10	11	1	0.5	0.5	1	0.4637597305184331	1	1	0.4203201001510024	0.4175263575742065	2	1
10	12	1	0.5	0.5	1	0.5621185620801024	1	2	0.5364985000342131	0.4636643507949238	1	0
10	13	1	0.5	0.5	1	0.5163908815633236	1	1	0.03614180022850633	0.567985775701252	2	1
10	14	1	0.5	0.5	1	0.5889210307656265	1	2	0.1272394000552595	0.4269373093735557	2	0
10	15	1	0.5	0.5	1	0.5429250090837751	1	2	0.2146415002644062	0.4755738470246091	2	0
10	16	1	0.5	0.5	1	0.5753500100877139	1	2	0.2188082998618484	0.5380736956355204	1	0
10	17	1	0.5	0.5	1	0.5760647290573425	1	1	0.3518416001461446	0.5248163504004948	2	1
10	18	1	0.5	0.5	1	0.4630420914419576	1	2	0.3768432000651956	0.5090522628674965	2	0
10	19	1	0.5	0.5	1	0.5600800555135754	1	2	0.3115501999855042	0.5736419868991273	2	0
10	20	1	0.5	0.5	1	0.5954852767147739	1	2	0.4399442998692393	0.5753485501906934	2	0
11	1	2	0.6	0.1	1	0.4887890741518581	1	2	0.4846140998415649	0.4696047257837406	1	0
11	2	2	0.6	0.1	1	0.4840401461465119	1	1	0.2649304000660777	0.4131582064358016	2	1
11	3	2	0.6	0.1	1	0.5926775811446593	1	2	0.05861079972237349	0.5783169903343284	2	0
11	4	2	0.6	0.1	1	0.5985790699585106	1	2	0.01287599978968501	0.4913895729461895	2	0
11	5	2	0.6	0.1	1	0.5183560858576171	1	2	0.1764281000941992	0.4253110466586741	2	0
11	6	2	0.6	0.1	1	0.5765369428741706	1	2	0.1421038997359574	0.5981819606037437	1	0
11	7	2	0.6	0.1	1	0.5360448631930593	1	1	0.05662820022553205	0.4696435287560542	1	1
11	8	2	0.6	0.1	1	0.4791617602108721	1	2	0.3472934998571873	0.5423708980661164	2	0
11	9	2	0.6	0.1	1	0.5051947056195802	1	2	0.2122777001932263	0.5063836513528636	2	0
11	10	2	0.6	0.1	1	0.487010339294781	1	2	0.1313939997926354	0.5084842671965698	2	0
11	11	2	0.6	0.1	1	0.4201289027559927	1	1	0.239639800041914	0.5321329504721897	1	1
11	12	2	0.6	0.1	1	0.5728242750031305	1	1	0.2382571999914944	0.4186190194783198	1	1
11	13	2	0.6	0.1	1	0.4492807564640788	1	2	0.3284567003138363	0.4494807089222693	2	0
11	14	2	0.6	0.1	1	0.5528032168334941	0	n/a	n/a	n/a	n/a	n/a
11	15	2	0.6	0.1	1	0.564471673585383	1	1	0.2180135999806225	0.4403605688650262	1	1
11	16	2	0.6	0.1	1	0.5050405003921505	1	2	0.08747329981997609	0.4238081401629012	2	0
11	17	2	0.6	0.1	1	0.5564539304090534	1	2	0.0005876999348402023	0.4147478181721171	1	0
11	18	2	0.6	0.1	1	0.5995913549356675	1	1	0.2758090998977423	0.5288890185986382	1	1
11	19	2	0.6	0.1	1	0.4391935668473913	1	1	0.09137660032138228	0.4224373335285974	2	1
11	20	2	0.6	0.1	1	0.5506220808201954	1	2	0.0004229997284710407	0.4293213441585715	2	0
12	1	1	0.5	0.5	1	0.5735461269580571	1	1	0.2206780002452433	0.5503537134565688	2	1
12	2	1	0.5	0.5	1	0.406214528415006	1	2	0.1301811002194881	0.5407799723104214	2	0
12	3	1	0.5	0.5	1	0.4540383706604709	1	2	0.01569879986345768	0.4212234585186964	2	0
12	4	1	0.5	0.5	1	0.5108827111278793	1	2	0.14706140011549	0.5559834726090394	1	0
12	5	1	0.5	0.5	1	0.4688191606861752	1	1	0.01315379980951548	0.4300478452045937	2	1
12	6	1	0.5	0.5	1	0.4466622766127158	1	1	0.02416040003299713	0.5670110061739426	2	1
12	7	1	0.5	0.5	1	0.549100511480912	1	2	0.0004066000692546368	0.5292174102771451	2	0
12	8	1	0.5	0.5	1	0.4591602227721076	1	2	0.02810220001265407	0.4023744276627753	2	0
12	9	1	0.5	0.5	1	0.4629449562503098	1	2	0.0703897001221776	0.4621009435756295	1	0
12	10	1	0.5	0.5	1	0.5015895432453109	1	1	0.1530853998847306	0.5112966869842434	1	1
12	11	1	0.5	0.5	1	0.4959951863708399	1	2	0.2184507995843887	0.5582342598576812	2	0
12	12	1	0.5	0.5	1	0.5328846814497131	1	1	0.1803716998547316	0.5983844063187511	2	1
12	13	1	0.5	0.5	1	0.596431731774354	1	1	0.0009512999095022678	0.4146172385899536	2	1
12	14	1	0.5	0.5	1	0.440670144527108	1	1	0.2475286996923387	0.5472059538599665	2	1
12	15	1	0.5	0.5	1	0.4220394271775505	1	1	0.0004028999246656895	0.4891478810404943	1	1
12	16	1	0.5	0.5	1	0.5458351745200303	1	1	0.0794212999753654	0.4879793156251496	2	1
12	17	1	0.5	0.5	1	0.5276656773699719	1	1	0.1208735997788608	0.450357371384546	1	1
12	18	1	0.5	0.5	1	0.4232306876185263	1	2	0.5660804999060929	0.4876167972117593	2	0
12	19	1	0.5	0.5	1	0.4757934371699603	1	2	0.1879811999388039	0.5680018336242112	2	0
12	20	1	0.5	0.5	1	0.440550485616614	1	2	0.270229899790138	0.5630474157705638	2	0
13	1	2	0.6	0.1	1	0.476794695106007	1	1	0.7212149002589285	0.5709209799903422	1	1
13	2	2	0.6	0.1	1	0.5297472294512252	1	1	0.09810599964112043	0.5719760138861598	1	1
13	3	2	0.6	0.1	1	0.4040166290962757	1	1	0.4249342996627092	0.4610422090409834	1	1
13	4	2	0.6	0.1	1	0.5166009197683282	1	2	0.2626590998843312	0.5313244262956175	2	0
13	5	2	0.6	0.1	1	0.4944763911832658	1	2	0.1509968000464141	0.4217625581064156	2	0
13	6	2	0.6	0.1	1	0.5175116609183898	1	2	0.4423374999314547	0.5831140360418263	2	0
13	7	2	0.6	0.1	1	0.4697700508757273	1	1	0.4087837003171444	0.550967813517443	2	1
13	8	2	0.6	0.1	1	0.5222531923547721	1	2	0.3167456998489797	0.5116318855018855	2	0
13	9	2	0.6	0.1	1	0.4503566723158502	1	2	0.22988670039922	0.5127869004136214	2	0
13	10	2	0.6	0.1	1	0.459317137943952	1	2	0.2743731997907162	0.4804137424704502	2	0
13	11	2	0.6	0.1	1	0.5003598587338179	1	2	0.2432411997579038	0.534425939028856	2	0
13	12	2	0.6	0.1	1	0.5319192442146324	1	2	0.0004112999886274338	0.5837862143450444	2	0
13	13	2	0.6	0.1	1	0.5800147886211982	1	2	0.293443700298667	0.4137999281040463	1	0
13	14	2	0.6	0.1	1	0.4742276438609276	1	1	0.2130156001076102	0.4994590776243728	2	1
13	15	2	0.6	0.1	1	0.4436856066662573	1	1	0.2205238002352417	0.4676532148291184	1	1
13	16	2	0.6	0.1	1	0.4085468061893449	1	1	0.2847454999573529	0.4385053922775433	1	1
13	17	2	0.6	0.1	1	0.4699090320687866	1	1	0.1571438000537455	0.593604341834301	1	1
13	18	2	0.6	0.1	1	0.4695632405467569	1	1	0.3990901997312903	0.4036566626310855	2	1
13	19	2	0.6	0.1	1	0.4447317503948378	1	2	0.07574359979480505	0.5365951249192884	2	0
13	20	2	0.6	0.1	1	0.5444046198901017	1	2	0.3166753998957574	0.5528756886225346	2	0
14	1	1	0.5	0.5	1	0.4650488727294502	1	1	0.2580665997229517	0.4157525102572771	2	1
14	2	1	0.5	0.5	1	0.5474814086740392	1	2	0.0004090000875294209	0.5529190996290105	1	0
14	3	1	0.5	0.5	1	0.4440807123655577	1	1	0.126384399831295	0.4744370772986644	2	1
14	4	1	0.5	0.5	1	0.4444533062409886	1	2	0.07958379993215203	0.4470221589128408	2	0
14	5	1	0.5	0.5	1	0.5344771976299022	1	2	0.06879620021209121	0.5219368284841932	2	0
14	6	1	0.5	0.5	1	0.5445365629799488	1	2	0.2386766001582146	0.5582446996723271	2	0
14	7	1	0.5	0.5	1	0.5749369326519436	1	2	0.1028136997483671	0.4804748650208543	1	0
14	8	1	0.5	0.5	1	0.4457632555423811	1	1	0.1308246999979019	0.5975277718028099	2	1
14	9	1	0.5	0.5	1	0.5765228606750079	1	2	0.1792381000705063	0.435957397768546	2	0
14	10	1	0.5	0.5	1	0.4495294839018157	1	2	0.2256999001838267	0.5527334916332097	1	0
14	11	1	0.5	0.5	1	0.5754012528529371	1	1	0.7009362997487187	0.4165579038704945	2	1
14	12	1	0.5	0.5	1	0.4639690337101455	1	2	0.2942620003595948	0.456167663393269	2	0
14	13	1	0.5	0.5	1	0.4171311835147083	1	2	0.2387367002665997	0.5306583776000091	1	0
14	14	1	0.5	0.5	1	0.4952651448996465	1	1	0.1843841997906566	0.5469764277360185	2	1
14	15	1	0.5	0.5	1	0.5591546714284185	1	2	0.2536399997770786	0.4396591116251435	2	0
14	16	1	0.5	0.5	1	0.5347664178646928	1	2	0.1786706997081637	0.4069996299230852	2	0
14	17	1	0.5	0.5	1	0.457598228609213	1	2	0.2139196000061929	0.5097508346335731	1	0
14	18	1	0.5	0.5	1	0.4349129631089604	1	1	0.1204237998463213	0.4061076322437086	2	1
14	19	1	0.5	0.5	1	0.5699200293500813	1	2	0.0810182997956872	0.4933856842389142	2	0
14	20	1	0.5	0.5	1	0.4408481156043496	1	2	0.2425475004129112	0.4843868997922559	2	0
15	1	2	0.6	0.1	1	0.4524231081303311	1	2	0.3792400998063385	0.5227204043292124	2	0
15	2	2	0.6	0.1	1	0.5641645023911308	1	2	0.02290630014613271	0.5583377602088011	2	0
15	3	2	0.6	0.1	1	0.4408393384639525	1	2	0.2415905999951065	0.4895165050826368	2	0
15	4	2	0.6	0.1	1	0.5423444030072347	1	2	0.353589600417763	0.4879814894026559	1	0
15	5	2	0.6	0.1	1	0.5915529308401434	1	1	0.1575512001290917	0.5286310661159428	1	1
15	6	2	0.6	0.1	1	0.4180709682836919	1	1	0.3948872000910342	0.4435392759331462	1	1
15	7	2	0.6	0.1	1	0.4360904837226239	1	1	0.3974691000767052	0.551314940738782	2	1
15	8	2	0.6	0.1	1	0.5340250096626837	1	2	0.2434394997544587	0.4669760298727675	1	0
15	9	2	0.6	0.1	1	0.4931473516956497	1	1	0.2274313997477293	0.5405670358747813	1	1
15	10	2	0.6	0.1	1	0.4009110762766055	1	1	0.3812071997672319	0.5530856169175545	1	1
15	11	2	0.6	0.1	1	0.5180734463541197	1	1	0.08473279979079962	0.5114854597171621	1	1
15	12	2	0.6	0.1	1	0.4773807552507166	1	2	0.3828744003549218	0.5312326882755378	2	0
15	13	2	0.6	0.1	1	0.4080948642101058	1	2	0.2861840999685228	0.4015916699110171	2	0
15	14	2	0.6	0.1	1	0.5267118155457127	1	2	0.01802200032398105	0.4816239835353449	2	0
15	15	2	0.6	0.1	1	0.4064464524541931	1	2	0.2571586002595723	0.5260729038229572	2	0
15	16	2	0.6	0.1	1	0.48446204433852	1	2	0.164691099897027	0.5885946282753709	2	0
15	17	2	0.6	0.1	1	0.5172085554818092	1	2	0.250704700127244	0.4945660822060805	2	0
15	18	2	0.6	0.1	1	0.4161073283457165	1	2	0.6470293002203107	0.5756603088724218	2	0
15	19	2	0.6	0.1	1	0.4170660771255967	1	2	0.06337299989536405	0.4578717655737048	2	0
15	20	2	0.6	0.1	1	0.475374391438025	1	2	0.1093625002540648	0.406649846170799	2	0
16	1	1	0.5	0.5	1	0.4367866173845075	1	2	0.4441912998445332	0.4374361725407848	2	0
16	2	1	0.5	0.5	1	0.5791370891001966	1	2	0.2580128000117838	0.5234710007858592	2	0
16	3	1	0.5	0.5	1	0.5094175562350275	1	2	0.1330842999741435	0.4121565846700393	2	0
16	4	1	0.5	0.5	1	0.5564386002413685	1	2	0.1049075000919402	0.57379842044178	1	0
16	5	1	0.5	0.5	1	0.4569581849916185	1	2	0.1526180999353528	0.5339849063003612	1	0
16	6	1	0.5	0.5	1	0.5950831711299143	1	1	0.1512404996901751	0.4048343272881403	2	1
16	7	1	0.5	0.5	1	0.4603732935058329	1	1	0.1421609995886683	0.4011910487379732	2	1
16	8	1	0.5	0.5	1	0.5181793952817808	1	2	0.02735510002821684	0.413962782677645	2	0
16	9	1	0.5	0.5	1	0.5387709208439082	1	2	0.08443559985607862	0.5026737449402089	1	0
16	10	1	0.5	0.5	1	0.537947504582369	1	1	0.2387961000204086	0.4890661047995307	2	1
16	11	1	0.5	0.5	1	0.4799761232242435	1	2	0.2111145998351276	0.4750300826874597	2	0
16	12	1	0.5	0.5	1	0.4354436813180566	1	2	0.2067606002092361	0.548997661302786	2	0
16	13	1	0.5	0.5	1	0.5932834379958679	1	2	0.1105614001862705	0.4173791753703314	2	0
16	14	1	0.5	0.5	1	0.4409266477706885	1	2	0.4839375000447035	0.5560609761075471	1	0
16	15	1	0.5	0.5	1	0.5138760920403325	1	1	0.2335001002065837	0.5701922411012748	2	1
16	16	1	0.5	0.5	1	0.5052568881474857	1	1	0.2087137000635266	0.5219706838673314	2	1
16	17	1	0.5	0.5	1	0.4343929634987187	1	2	0.1346753998659551	0.5379232998316751	1	0
16	18	1	0.5	0.5	1	0.4210155792940927	1	1	0.224170200061053	0.5404864892421432	2	1
16	19	1	0.5	0.5	1	0.5625006049667416	1	1	0.01527169998735189	0.4633626742685575	2	1
16	20	1	0.5	0.5	1	0.4841010355514189	1	2	0.07799819996580482	0.5459975298221058	2	0
17	1	2	0.6	0.1	1	0.5511069906437276	1	1	0.4357555997557938	0.4584732468370621	1	1
17	2	2	0.6	0.1	1	0.4509901692399675	1	1	0.2568717999383807	0.4440646397620885	1	1
17	3	2	0.6	0.1	1	0.5314403116058566	1	1	0.1876284000463784	0.5050404986779606	1	1
17	4	2	0.6	0.1	1	0.408140118102031	1	1	0.2272747000679374	0.4249950662183899	2	1
17	5	2	0.6	0.1	1	0.4111553391477591	1	2	0.2530087996274233	0.5151293192142292	2	0
17	6	2	0.6	0.1	1	0.4567868845513877	1	2	0.2308664000593126	0.5580683496032035	2	0
17	7	2	0.6	0.1	1	0.5468652883699944	1	2	0.0004253997467458248	0.4743306268397178	2	0
17	8	2	0.6	0.1	1	0.4337773777075031	1	2	0.2122717997990549	0.5751197865428834	2	0
17	9	2	0.6	0.1	1	0.4426160284694978	1	2	0.2260786001570523	0.4350778870078654	2	0
17	10	2	0.6	0.1	1	0.4085703809053708	1	2	0.230863600037992	0.4165780841226356	2	0
17	11	2	0.6	0.1	1	0.5106653060695098	1	2	0.3062911001034081	0.4676515374556975	1	0
17	12	2	0.6	0.1	1	0.5557674267752988	1	1	0.09835660038515925	0.4647228991590709	2	1
17	13	2	0.6	0.1	1	0.5917404762273191	1	1	0.0165086998604238	0.4575315380532927	2	1
17	14	2	0.6	0.1	1	0.5769730508593133	1	2	0.1025774995796382	0.5332447202496328	2	0
17	15	2	0.6	0.1	1	0.5762669722552544	1	2	0.2274126000702381	0.5287715899619525	2	0
17	16	2	0.6	0.1	1	0.4090341088370323	1	2	0.2458581002429128	0.5577679805429411	2	0
17	17	2	0.6	0.1	1	0.5400337317740758	1	2	0.2452798001468182	0.5577452091001835	1	0
17	18	2	0.6	0.1	1	0.4833409012308081	1	1	0.3003517002798617	0.4471085004065743	1	1
17	19	2	0.6	0.1	1	0.5763064384978649	1	1	0.2943551996722817	0.4033265197486833	1	1
17	20	2	0.6	0.1	1	0.4528554727392263	1	1	0.198942200280726	0.4033580673562636	2	1
18	1	1	0.5	0.5	1	0.5285173568579548	1	1	0.1982529000379145	0.5812986406796938	2	1
18	2	1	0.5	0.5	1	0.5097507432657085	1	2	0.08452049968764186	0.4983847062159375	2	0
18	3	1	0.5	0.5	1	0.4409883012541667	1	2	0.1119093997403979	0.4424167457688215	1	0
18	4	1	0.5	0.5	1	0.491348485478422	1	2	0.3831870001740754	0.5407852518404513	2	0
18	5	1	0.5	0.5	1	0.4214568292094362	1	2	0.1706927996128798	0.5366666426126845	2	0
18	6	1	0.5	0.5	1	0.460558111204228	1	2	0.1128579000942409	0.4229489014457387	1	0
18	7	1	0.5	0.5	1	0.4227813601623712	1	1	0.2630019001662731	0.5044632122963164	2	1
18	8	1	0.5	0.5	1	0.571743339133127	1	1	0.2241889000870287	0.4499984160659253	2	1
18	9	1	0.5	0.5	1	0.5047047448504056	1	2	0.1412224001251161	0.4013349376489806	2	0
18	10	1	0.5	0.5	1	0.571919202392962	1	2	0.001033799722790718	0.5576654286236935	1	0
18	11	1	0.5	0.5	1	0.4361620601170515	1	1	0.07724179979413748	0.5023862171920067	2	1
18	12	1	0.5	0.5	1	0.5184328802820468	1	2	0.1371977999806404	0.5619077124045095	1	0
18	13	1	0.5	0.5	1	0.560856875950772	1	1	0.001482400111854076	0.4140680944660208	2	1
18	14	1	0.5	0.5	1	0.5126785271692768	1	2	0.05128000024706125	0.5007435566429077	2	0
18	15	1	0.5	0.5	1	0.5665974549301533	1	2	0.02637859992682934	0.479264862567985	2	0
18	16	1	0.5	0.5	1	0.5582928152497418	1	2	0.003365400247275829	0.5719032108715423	1	0
18	17	1	0.5	0.5	1	0.4703201200865126	1	1	0.129770599771291	0.558720620987382	2	1
18	18	1	0.5	0.5	1	0.4763394432768712	1	2	0.1747605996206403	0.4708933470179753	2	0
18	19	1	0.5	0.5	1	0.5613603169827787	1	2	0.203381999861449	0.4119963109309331	2	0
18	20	1	0.5	0.5	1	0.410045680881468	1	2	0.2346752998419106	0.4773254573636693	2	0
19	1	2	0.6	0.1	1	0.5326103811650351	1	2	0.2756551001220942	0.4985997507638742	2	0
19	2	2	0.6	0.1	1	0.559054988147295	1	2	0.000403400044888258	0.5632348102163944	2	0
19	3	2	0.6	0.1	1	0.5075915123525994	1	2	0.06346289999783039	0.5601642989314739	1	0
19	4	2	0.6	0.1	1	0.5340559147001921	1	1	0.2219954999163747	0.4004727895099358	1	1
19	5	2	0.6	0.1	1	0.4805343615357073	1	1	0.1927943001501262	0.4089793712762442	2	1
19	6	2	0.6	0.1	1	0.5227441349917759	1	2	0.0004031998105347157	0.5073456414249762	2	0
19	7	2	0.6	0.1	1	0.492747888722662	1	2	0.005305599886924028	0.4353390797220326	2	0
19	8	2	0.6	0.1	1	0.5293111803936286	1	2	0.07878000009804964	0.4650319696698603	2	0
19	9	2	0.6	0.1	1	0.4273929243063531	1	2	0.482171599753201	0.585719800359199	2	0
19	10	2	0.6	0.1	1	0.4445624608595618	1	2	0.3047287999652326	0.53052129736454	2	0
19	11	2	0.6	0.1	1	0.5679610849089197	1	2	0.1555107003077865	0.5733695165435246	2	0
19	12	2	0.6	0.1	1	0.4084080379036928	1	2	0.1848446000367403	0.4051254152415365	1	0
19	13	2	0.6	0.1	1	0.4424433893862122	1	1	0.2450822996906936	0.506919037883763	1	1
19	14	2	0.6	0.1	1	0.5668062873193949	1	1	0.0004889997653663158	0.5206504306590414	2	1
19	15	2	0.6	0.1	1	0.530712501723232	1	2	0.3444835003465414	0.4563406814271296	2	0
19	16	2	0.6	0.1	1	0.448882436142743	1	2	0.03782640025019646	0.4561596317979147	2	0
19	17	2	0.6	0.1	1	0.5561229241582212	1	2	0.09246729966253042	0.5415152072553453	2	0
19	18	2	0.6	0.1	1	0.5546232803642912	1	2	0.3359685000032187	0.478213820758693	2	0
19	19	2	0.6	0.1	1	0.5113842210665407	1	1	0.273248499725014	0.4968270975656921	1	1
19	20	2	0.6	0.1	1	0.4963674508537494	1	1	0.09846789995208383	0.5989631751755056	1	1
20	1	1	0.5	0.5	1	0.4402257319076156	1	1	0.4856388997286558	0.4380275865141635	1	1
20	2	1	0.5	0.5	1	0.5394889579740033	1	1	0.1036188001744449	0.4261463480172403	2	1
20	3	1	0.5	0.5	1	0.471769210164055	1	2	0.02088219998404384	0.5563640902471479	2	0
20	4	1	0.5	0.5	1	0.515305268853097	1	2	0.2749895001761615	0.5079768458472494	2	0
20	5	1	0.5	0.5	1	0.413423156688115	1	2	0.114805200137198	0.5858881469426009	1	0
20	6	1	0.5	0.5	1	0.5163398558547293	1	1	0.2125180996954441	0.4946995794029598	2	1
20	7	1	0.5	0.5	1	0.5180632045581777	1	2	0.01192399999126792	0.4152462013258391	2	0
20	8	1	0.5	0.5	1	0.5720015320574086	1	2	0.04543709987774491	0.4296170447516155	2	0
20	9	1	0.5	0.5	1	0.594887693562913	1	2	0.2599280998110771	0.5664141036923747	2	0
20	10	1	0.5	0.5	1	0.5652447198747185	1	2	0.09079169994220138	0.4683795718008943	1	0
20	11	1	0.5	0.5	1	0.5959544288417941	1	1	0.2342163003049791	0.4180410973099728	2	1
20	12	1	0.5	0.5	1	0.552752005510365	1	2	0.0137721998617053	0.4590549236802245	2	0
20	13	1	0.5	0.5	1	0.5056920026704533	1	2	0.3625274002552032	0.4947919369958121	1	0
20	14	1	0.5	0.5	1	0.5456790084759839	1	1	0.2387604000978172	0.4871924679714584	2	1
20	15	1	0.5	0.5	1	0.4828081307559229	1	2	0.2921628002077341	0.4209965322255672	2	0
20	16	1	0.5	0.5	1	0.5933682969138779	1	2	0.1921329000033438	0.4983838238465979	1	0
20	17	1	0.5	0.5	1	0.5871839042551945	1	1	0.1476529999636114	0.561813559084152	2	1
20	18	1	0.5	0.5	1	0.5485309201025184	1	1	0.5291690998710692	0.410203465467201	2	1
20	19	1	0.5	0.5	1	0.4854620173487655	1	1	0.1040600999258459	0.5523213121730344	2	1
20	20	1	0.5	0.5	1	0.4391927452114286	1	2	0.1631749998778105	0.4105385196692727	2	0
