blockNum	trialNum	condition	pWin1	pWin2	optimalResponse	preStimulusDelay	responded	response	rt	preFeedbackDelay	outcome	optimal
1	1	2	0.1	0.6	2	0.5359869578688792	1	2	1.910678300075233	0.4126336744965984	1	1
1	2	2	0.1	0.6	2	0.4198503261150406	1	1	0.8282608003355563	0.4857865597982566	2	0
1	3	2	0.1	0.6	2	0.461390892810423	1	1	0.5646434002555907	0.4512895468364695	2	0
1	4	2	0.1	0.6	2	0.4193960621574322	1	2	0.3131899000145495	0.4477589504633276	1	1
1	5	2	0.1	0.6	2	0.4419241469916718	1	2	0.5759250000119209	0.4461496065053128	1	1
1	6	2	0.1	0.6	2	0.5068252554987307	1	2	0.5436635003425181	0.5670605270701771	1	1
1	7	2	0.1	0.6	2	0.4220514784777557	1	2	0.6655387999489903	0.4179087859855216	2	1
1	8	2	0.1	0.6	2	0.4868211773729641	1	1	0.5277550001628697	0.4486337678361637	2	0
1	9	2	0.1	0.6	2	0.5657426024106695	1	2	0.46899010008201	0.545937153165914	1	1
1	10	2	0.1	0.6	2	0.4780162220502955	1	2	0.603484199848026	0.5330045811287003	1	1
1	11	2	0.1	0.6	2	0.5592746231479054	1	2	0.4325963002629578	0.5016409265823553	1	1
1	12	2	0.1	0.6	2	0.5283179307338864	1	2	0.3156624999828637	0.4314756694530008	2	1
1	13	2	0.1	0.6	2	0.5060125411812426	1	2	0.3142193001694977	0.5391664411568435	1	1
1	14	2	0.1	0.6	2	0.5380039488377586	1	2	0.4403985003009439	0.5143138559314222	1	1
1	15	2	0.1	0.6	2	0.5392446948134622	1	2	0.5219539999961853	0.5588237321995334	1	1
1	16	2	0.1	0.6	2	0.4202906917687729	1	2	0.5128077999688685	0.4929938114488042	1	1
1	17	2	0.1	0.6	2	0.5604995817896731	1	2	0.3193489001132548	0.5648757338077373	1	1
1	18	2	0.1	0.6	2	0.4852011316293951	1	2	0.5099034998565912	0.419209471745121	2	1
1	19	2	0.1	0.6	2	0.4796068169894965	1	2	0.3105307999067008	0.5713947063645515	1	1
1	20	2	0.1	0.6	2	0.4079402098516371	1	2	0.5140264998190105	0.5132258556352174	1	1
2	1	1	0.5	0.5	1	0.5465430308214159	1	2	1.498013300355524	0.5111551451366377	1	0
2	2	1	0.5	0.5	1	0.444488086334216	1	2	0.3867649999447167	0.4493167151150713	1	0
2	3	1	0.5	0.5	1	0.5491878931776072	1	2	0.3167619002051651	0.4047028005923553	2	0
2	4	1	0.5	0.5	1	0.5005653331981457	1	2	0.3202500999905169	0.4600625835986001	1	0
2	5	1	0.5	0.5	1	0.4489122514354417	1	2	0.2949119997210801	0.5291696713980572	1	0
2	6	1	0.5	0.5	1	0.4190410565147775	1	2	0.3376015000976622	0.4862920571734585	1	0
2	7	1	0.5	0.5	1	0.4623602217976486	1	2	0.3921566000208259	0.582822619119975	2	0
2	8	1	0.5	0.5	1	0.515412130814297	1	2	0.4285510000772774	0.4401316201672513	1	0
2	9	1	0.5	0.5	1	0.4750174550818314	1	2	0.3486132998950779	0.4162929827753207	1	0
2	10	1	0.5	0.5	1	0.4971886031587943	1	2	0.336173000279814	0.5980362261516161	2	0
2	11	1	0.5	0.5	1	0.528869799701302	1	2	0.3227907996624708	0.4101957043578925	1	0
2	12	1	0.5	0.5	1	0.5050077703192534	1	2	0.2600811999291182	0.4210244137645737	1	0
2	13	1	0.5	0.5	1	0.5886582058027531	1	2	0.2965583000332117	0.4412312947039971	1	0
2	14	1	0.5	0.5	1	0.5396306050698779	1	2	0.3277822998352349	0.4511336655158354	2	0
2	15	1	0.5	0.5	1	0.4304094379748691	1	2	0.3133443002589047	0.5478439909664434	1	0
2	16	1	0.5	0.5	1	0.562545924994493	1	2	0.2724182000383735	0.5172172361068135	1	0
2	17	1	0.5	0.5	1	0.4881811724254599	1	1	0.2454769001342356	0.5350772152692873	1	1
2	18	1	0.5	0.5	1	0.4781728610077206	1	2	0.2390088001266122	0.4058832066819516	2	0
2	19	1	0.5	0.5	1	0.4919703356403573	1	2	0.364960300270468	0.4136238576059124	1	0
2	20	1	0.5	0.5	1	0.4483056852326603	1	2	0.398898100014776	0.594145222715138	2	0
3	1	2	0.1	0.6	2	0.5641714633292068	0	n/a	n/a	n/a	n/a	n/a
3	2	2	0.1	0.6	2	0.5518924220666863	1	2	0.4459230001084507	0.4102818980496037	1	1
3	3	2	0.1	0.6	2	0.5435510117520752	1	2	0.3022221000865102	0.4405821229476482	1	1
3	4	2	0.1	0.6	2	0.5889662302983149	1	2	0.4040443999692798	0.4952021745035895	1	1
3	5	2	0.1	0.6	2	0.4008436108586256	1	2	0.3006556998006999	0.4908637777458074	1	1
3	6	2	0.1	0.6	2	0.5541497024477103	1	2	0.2211962998844683	0.5353331730436696	1	1
3	7	2	0.1	0.6	2	0.4373361342512677	1	2	0.2795047000981867	0.542144316561236	2	1
3	8	2	0.1	0.6	2	0.5624865383305174	1	2	0.1252338998019695	0.4250514297460799	1	1
3	9	2	0.1	0.6	2	0.4643902559757699	1	2	0.2394615998491645	0.5204772501623995	1	1
3	10	2	0.1	0.6	2	0.4900761345944987	1	2	0.2687129001133144	0.4178277746099722	2	1
3	11	2	0.1	0.6	2	0.4649649508610556	1	2	0.2772431001067162	0.5470918013283306	1	1
3	12	2	0.1	0.6	2	0.5028143462081602	1	2	0.1703081000596285	0.4888944563864948	1	1
3	13	2	0.1	0.6	2	0.4283326652796653	1	2	0.2515448997728527	0.4506243899774299	2	1
3	14	2	0.1	0.6	2	0.454879828180941	1	2	0.2622425998561084	0.4187038777764693	2	1
3	15	2	0.1	0.6	2	0.5945704279628147	1	2	0.098180599976331	0.5208322562902542	1	1
3	16	2	0.1	0.6	2	0.4000585809439849	1	2	0.2597586000338197	0.5830964837483671	1	1
3	17	2	0.1	0.6	2	0.429549493066097	1	2	0.1552805001847446	0.5920110455053714	1	1
3	18	2	0.1	0.6	2	0.4852831061242064	1	2	0.2157840002328157	0.5404584732251276	1	1
3	19	2	0.1	0.6	2	0.5995812631433848	1	2	0.2514084000140429	0.5627711543112488	1	1
3	20	2	0.1	0.6	2	0.4678600182492116	1	2	0.2716270997188985	0.5173169759005065	2	1
4	1	1	0.5	0.5	1	0.4849712838897756	1	2	0.9831122998148203	0.5564511747915318	1	0
4	2	1	0.5	0.5	1	0.5955916838222264	1	2	0.2811182998120785	0.5468343678347555	1	0
4	3	1	0.5	0.5	1	0.5985044975452017	1	2	0.2622980000451207	0.4034861614400576	1	0
4	4	1	0.5	0.5	1	0.4458308660654178	1	2	0.4413172001950443	0.5105243968406877	1	0
4	5	1	0.5	0.5	1	0.4255741969598094	1	2	0.351152999792248	0.5446926951808762	2	0
4	6	1	0.5	0.5	1	0.4321906659260197	1	2	0.2636065999977291	0.4566902046200704	2	0
4	7	1	0.5	0.5	1	0.5876214906468725	1	2	0.1992780999280512	0.4719567250945705	2	0
4	8	1	0.5	0.5	1	0.4317325571382506	1	1	0.2102001998573542	0.4455458414993322	2	1
4	9	1	0.5	0.5	1	0.5238264540306158	1	1	0.08484689984470606	0.5654548168597566	1	1
4	10	1	0.5	0.5	1	0.4408927467313001	1	1	0.2253527999855578	0.4026328308107528	1	1
4	11	1	0.5	0.5	1	0.5367371259530384	1	1	0.2787844003178179	0.5630718399703701	1	1
4	12	1	0.5	0.5	1	0.4857842974108005	1	1	0.1962888999842107	0.5323641905472651	1	1
4	13	1	0.5	0.5	1	0.5263200797225021	1	1	0.2296609999611974	0.4114261330741275	2	1
4	14	1	0.5	0.5	1	0.4892385724284725	1	1	0.2186020002700388	0.4199659448689128	1	1
4	15	1	0.5	0.5	1	0.5236399053225589	1	1	0.2316899001598358	0.4181822075727425	1	1
4	16	1	0.5	0.5	1	0.5169384750547323	1	1	0.2961969999596477	0.433497292035587	1	1
4	17	1	0.5	0.5	1	0.4285528612932008	1	1	0.2883053002879024	0.5182040511029498	2	1
4	18	1	0.5	0.5	1	0.5253112149018815	1	1	0.1238641999661922	0.5754477305286437	1	1
4	19	1	0.5	0.5	1	0.5939847881208404	1	1	0.01612230017781258	0.5818262054343497	1	1
4	20	1	0.5	0.5	1	0.5971242814751522	1	1	0.2131419996730983	0.4824951247086164	1	1
5	1	2	0.6	0.1	1	0.4599243133788023	1	1	0.60254339966923	0.4340822958261357	1	1
5	2	2	0.6	0.1	1	0.4414712720761993	1	1	0.2529557999223471	0.4265705328337465	2	1
5	3	2	0.6	0.1	1	0.4229562106571667	1	1	0.5936964000575244	0.4792860396388477	1	1
5	4	2	0.6	0.1	1	0.4349926049171024	1	1	0.332048200070858	0.5722489133468757	2	1
5	5	2	0.6	0.1	1	0.4529971571298075	1	1	0.2696437002159655	0.4674147649411399	2	1
5	6	2	0.6	0.1	1	0.458819816519339	1	1	0.3686855998821557	0.4589444039562813	1	1
5	7	2	0.6	0.1	1	0.4479468652487125	1	2	0.2640261999331415	0.4655208552707532	2	0
5	8	2	0.6	0.1	1	0.5150639490737139	1	1	0.2450604001060128	0.4513634409915626	2	1
5	9	2	0.6	0.1	1	0.5346095398803666	1	2	0.2177011002786458	0.4709839343204864	2	0
5	10	2	0.6	0.1	1	0.4136298800030484	1	2	0.2316280999220908	0.5168777524914319	2	0
5	11	2	0.6	0.1	1	0.4912028674915308	1	2	0.2754937000572681	0.532246755345424	2	0
5	12	2	0.6	0.1	1	0.4686924328209781	1	1	0.3384233000688255	0.50953167353064	1	1
5	13	2	0.6	0.1	1	0.4559141307479641	1	1	0.2548230001702905	0.4818987672808422	2	1
5	14	2	0.6	0.1	1	0.5552196099975553	1	1	0.430523400194943	0.4402539643307125	2	1
5	15	2	0.6	0.1	1	0.4224525217470599	1	1	0.4023663001134992	0.4933996566986202	2	1
5	16	2	0.6	0.1	1	0.4253425306261759	1	2	0.3557096002623439	0.4403759146981984	2	0
5	17	2	0.6	0.1	1	0.4281155390555234	1	1	0.2744486997835338	0.4097820643509145	2	1
5	18	2	0.6	0.1	1	0.5083882078344555	1	1	0.2462617000564933	0.5828270321365158	1	1
5	19	2	0.6	0.1	1	0.5376970028292762	1	1	0.3822475001215935	0.5711846039885921	1	1
5	20	2	0.6	0.1	1	0.4126050803954353	1	1	0.4351580999791622	0.5018346414156821	1	1
6	1	2	0.1	0.6	2	0.4686328386415475	1	2	0.4871473000384867	0.4282739014211243	1	1
6	2	2	0.1	0.6	2	0.585213220360206	1	2	0.3122513997368515	0.5895296899090769	2	1
6	3	2	0.1	0.6	2	0.543445469159586	1	2	0.2701526000164449	0.5512002415524658	1	1
6	4	2	0.1	0.6	2	0.5847498416249404	1	2	0.2488779998384416	0.4200975016508155	1	1
6	5	2	0.1	0.6	2	0.5294978354870977	1	2	0.3164499998092651	0.59363928919291	1	1
6	6	2	0.1	0.6	2	0.5614316135139956	1	2	0.3245739997364581	0.4959066768983303	1	1
6	7	2	0.1	0.6	2	0.5701305992226265	1	2	0.3733891001902521	0.4817068864215479	2	1
6	8	2	0.1	0.6	2	0.4588844792470113	1	2	0.4363311999477446	0.5125223753032992	1	1
6	9	2	0.1	0.6	2	0.4997008892644681	1	2	0.3652828997001052	0.597245375600805	1	1
6	10	2	0.1	0.6	2	0.5676148107686534	1	2	0.2198124001733959	0.4138486728179621	2	1
6	11	2	0.1	0.6	2	0.5189682263586892	1	2	0.4309719000011683	0.4333084456020873	1	1
6	12	2	0.1	0.6	2	0.5204194702602458	1	2	0.3433722001500428	0.4242015497263603	2	1
6	13	2	0.1	0.6	2	0.5126281545982356	1	2	0.3565587000921369	0.5666496458176924	2	1
6	14	2	0.1	0.6	2	0.4716667740739287	1	2	0.2746286997571588	0.4998353541398279	1	1
6	15	2	0.1	0.6	2	0.4485755477158072	1	2	0.2579398998059332	0.5262999649228317	2	1
6	16	2	0.1	0.6	2	0.5339970278463739	1	2	0.0004104999825358391	0.4569318750108301	1	1
6	17	2	0.1	0.6	2	0.4746995902198424	1	2	0.3275234000757337	0.4977517468842808	2	1
6	18	2	0.1	0.6	2	0.4342783390051517	1	2	0.3646797998808324	0.5514116835588694	2	1
6	19	2	0.1	0.6	2	0.4280918680538549	1	2	0.2299771998077631	0.4623608362476443	2	1
6	20	2	0.1	0.6	2	0.4511344911726006	1	2	0.2426722999662161	0.5554440720005971	2	1
7	1	1	0.5	0.5	1	0.4581476863262055	1	1	0.6811795998364687	0.4475171443844999	2	1
7	2	1	0.5	0.5	1	0.4135115601795604	1	1	0.2813340998254716	0.4367156986451782	2	1
7	3	1	0.5	0.5	1	0.4643086828935077	1	1	0.2585509000346065	0.5527918683473497	1	1
7	4	1	0.5	0.5	1	0.4013897929597868	1	1	0.2457766002044082	0.5357468120281134	1	1
7	5	1	0.5	0.5	1	0.5511763389844936	1	1	0.2281860001385212	0.5490713820920031	1	1
7	6	1	0.5	0.5	1	0.430272094354324	1	1	0.341658900026232	0.513189087738616	1	1
7	7	1	0.5	0.5	1	0.4497218273953816	1	1	0.3102847002446651	0.5293816328397222	2	1
7	8	1	0.5	0.5	1	0.433798237718798	1	1	0.2886442001909018	0.5902604235475695	2	1
7	9	1	0.5	0.5	1	0.4137588478309318	1	1	0.2536712000146508	0.4124572883342399	2	1
7	10	1	0.5	0.5	1	0.5379203435600463	1	1	0.2541406997479498	0.5298371470651443	2	1
7	11	1	0.5	0.5	1	0.5172032507953859	1	2	0.2495069000869989	0.4565943483312288	1	0
7	12	1	0.5	0.5	1	0.4424673329785057	1	2	0.3215160998515785	0.5264389537109218	2	0
7	13	1	0.5	0.5	1	0.486669923295948	1	2	0.2229781001806259	0.5213972586225331	2	0
7	14	1	0.5	0.5	1	0.4666822481890242	1	1	0.3317589000798762	0.5156246003848186	2	1
7	15	1	0.5	0.5	1	0.487005544985169	1	1	0.2084491001442075	0.5369060984263906	2	1
7	16	1	0.5	0.5	1	0.4874128436806791	1	2	0.1785118002444506	0.4147606311989162	1	0
7	17	1	0.5	0.5	1	0.5757127001269648	1	2	0.2307907002978027	0.5781107910143423	2	0
7	18	1	0.5	0.5	1	0.4780918748491629	1	2	0.2019338998943567	0.5108683830311289	1	0
7	19	1	0.5	0.5	1	0.4862711105764207	1	2	0.2421288001351058	0.5318312326521217	2	0
7	20	1	0.5	0.5	1	0.5377356004601415	1	2	0.2516818000003695	0.5174067290534782	2	0
8	1	1	0.5	0.5	1	0.4579957205106183	1	1	0.8311074003577232	0.4454126998937992	1	1
8	2	1	0.5	0.5	1	0.4400838847583577	1	1	0.3257092996500432	0.5176314778708866	2	1
8	3	1	0.5	0.5	1	0.4495013237006342	1	2	0.0003980998881161213	0.5661739906666361	2	0
8	4	1	0.5	0.5	1	0.4464277453462018	1	1	0.4375682002864778	0.4050526290701335	1	1
8	5	1	0.5	0.5	1	0.4171978344712048	1	1	0.3129204004071653	0.4101843861558373	1	1
8	6	1	0.5	0.5	1	0.4865026253597232	1	1	0.238326100166887	0.4662124181773994	2	1
8	7	1	0.5	0.5	1	0.5074512525528434	1	2	0.1941120000556111	0.5700695941795603	2	0
8	8	1	0.5	0.5	1	0.5558099019161541	1	1	0.2323493999429047	0.4192562450086179	1	1
8	9	1	0.5	0.5	1	0.4263187303729378	1	1	0.3131655002944171	0.502873784466434	2	1
8	10	1	0.5	0.5	1	0.4071287490685422	1	2	0.2338926000520587	0.5111815552434694	2	0
8	11	1	0.5	0.5	1	0.4703031049404514	1	1	0.2246987000107765	0.5469770729876118	1	1
8	12	1	0.5	0.5	1	0.5028810805362446	1	1	0.276776900049299	0.4569038185832498	1	1
8	13	1	0.5	0.5	1	0.599861634036846	1	1	0.3063135002739727	0.4680372216238525	1	1
8	14	1	0.5	0.5	1	0.4056459823048928	1	1	0.2955996999517083	0.4548440186971202	1	1
8	15	1	0.5	0.5	1	0.4112547957852066	1	1	0.3268547998741269	0.479274492126369	2	1
8	16	1	0.5	0.5	1	0.4997253834098615	1	2	0.2341559999622405	0.4127967528445552	1	0
8	17	1	0.5	0.5	1	0.4581800515647568	1	2	0.3469497999176383	0.4598936918493566	2	0
8	18	1	0.5	0.5	1	0.4140966183637396	1	1	0.3295543999411166	0.4485953526689324	2	1
8	19	1	0.5	0.5	1	0.4474939314189906	1	2	0.3436239999718964	0.4948377697775457	1	0
8	20	1	0.5	0.5	1	0.4613265975713087	1	2	0.2538061998784542	0.4490508653629128	2	0
9	1	2	0.6	0.1	1	0.4879196636147041	1	1	0.7760721002705395	0.4267731831069237	1	1
9	2	2	0.6	0.1	1	0.5840505968501541	1	1	0.2584254997782409	0.5852078669621441	1	1
9	3	2	0.6	0.1	1	0.5431671153709046	1	1	0.2387561998330057	0.5206034166706864	2	1
9	4	2	0.6	0.1	1	0.5746345229431469	1	1	0.2715054000727832	0.5102613486647334	2	1
9	5	2	0.6	0.1	1	0.5174354219731397	1	1	0.2916804999113083	0.5024851565705352	2	1
9	6	2	0.6	0.1	1	0.5092500145124914	1	1	0.1782740000635386	0.5957050396997059	1	1
9	7	2	0.6	0.1	1	0.4617243245400802	1	1	0.2475655996240675	0.5803603480301475	1	1
9	8	2	0.6	0.1	1	0.4225148969720437	1	1	0.274662199895829	0.4321263269821547	2	1
9	9	2	0.6	0.1	1	0.5121978016928858	1	2	0.2212073998525739	0.4588236281114698	2	0
9	10	2	0.6	0.1	1	0.4293101256205997	1	1	0.3018876002170146	0.4643788468551243	1	1
9	11	2	0.6	0.1	1	0.4666884202847664	1	1	0.247354700230062	0.5086753983912197	2	1
9	12	2	0.6	0.1	1	0.4030277350426759	1	1	0.2556866998784244	0.5434066690311169	2	1
9	13	2	0.6	0.1	1	0.5912319496868532	1	1	0.2390652000904083	0.5232633425169326	1	1
9	14	2	0.6	0.1	1	0.4086671377506015	1	1	0.09106920007616282	0.4683090448751429	2	1
9	15	2	0.6	0.1	1	0.5861663521538105	1	1	1.453810300212353	0.4459360783966531	2	1
9	16	2	0.6	0.1	1	0.438339486283146	1	2	0.3119971002452075	0.5666169851214022	2	0
9	17	2	0.6	0.1	1	0.4645776186052514	1	1	0.3210900002159178	0.4235583043699033	1	1
9	18	2	0.6	0.1	1	0.4130668807881109	1	1	0.4383994997479022	0.4376817994597983	2	1
9	19	2	0.6	0.1	1	0.4409935953002901	1	2	0.2376361000351608	0.4927881118573363	2	0
9	20	2	0.6	0.1	1	0.4951678687314386	1	2	0.1834999998100102	0.503037800925052	2	0
10	1	1	0.5	0.5	1	0.5644506626314927	1	1	0.6913124998100102	0.5511861086855097	2	1
10	2	1	0.5	0.5	1	0.4763286948698779	1	2	0.25839600013569	0.4698356792507395	2	0
10	3	1	0.5	0.5	1	0.4147038580421145	1	2	0.2963879001326859	0.4744215312719349	2	0
10	4	1	0.5	0.5	1	0.4573113176605362	1	2	0.2610621000640094	0.4204910523966445	1	0
10	5	1	0.5	0.5	1	0.5722121158306277	1	2	0.2368230000138283	0.4213899630080097	2	0
10	6	1	0.5	0.5	1	0.5058230695485755	1	1	0.2665957999415696	0.589705857198519	2	1
10	7	1	0.5	0.5	1	0.5249033219854127	1	1	0.2322495002299547	0.4918227853490087	1	1
10	8	1	0.5	0.5	1	0.4158799529036602	1	1	0.2776991999708116	0.5003934020363557	1	1
10	9	1	0.5	0.5	1	0.5489382161109955	1	1	0.2604524996131659	0.57375253862147	1	1
10	10	1	0.5	0.5	1	0.5525764620131872	1	1	0.2444373997859657	0.5093619996126419	1	1
10	11	1	0.5	0.5	1	0.5280204222579337	1	1	0.2135741002857685	0.484890796984391	2	1
10	12	1	0.5	0.5	1	0.4436135172777062	1	2	0.3523669997230172	0.5063154025084969	1	0
10	13	1	0.5	0.5	1	0.5021855614198152	1	2	0.3438095999881625	0.4759840055303944	2	0
10	14	1	0.5	0.5	1	0.4662230494643704	1	1	0.571993799880147	0.5816132882804264	2	1
10	15	1	0.5	0.5	1	0.5341964034543399	1	1	0.1942198001779616	0.431758482753288	2	1
10	16	1	0.5	0.5	1	0.5009092288990341	1	1	0.2271972000598907	0.542154001192616	1	1
10	17	1	0.5	0.5	1	0.5815020990698005	1	1	0.4061221997253597	0.4093599863021332	1	1
10	18	1	0.5	0.5	1	0.5269750279033285	1	1	0.05991650000214577	0.4011962552123006	1	1
10	19	1	0.5	0.5	1	0.5206207720358331	1	1	0.2700792998075485	0.4929556683582247	2	1
10	20	1	0.5	0.5	1	0.5004190841234089	1	1	0.2361582000739872	0.4429163285454102	1	1
11	1	2	0.6	0.1	1	0.4477948504328019	1	1	0.4897444997914135	0.4988548018854893	1	1
11	2	2	0.6	0.1	1	0.494536486266423	1	1	0.2556802998296916	0.5240758913334149	1	1
11	3	2	0.6	0.1	1	0.4381603208256093	1	1	0.5057410998269916	0.4186465756669111	2	1
11	4	2	0.6	0.1	1	0.540987985943178	1	1	0.2834805999882519	0.4042469394015704	2	1
11	5	2	0.6	0.1	1	0.4268699610155751	1	1	0.3883462999947369	0.5420018743399323	1	1
11	6	2	0.6	0.1	1	0.5123007492711611	1	1	0.2523729000240564	0.4375941196135127	2	1
11	7	2	0.6	0.1	1	0.4266455332298528	1	1	0.3642715001478791	0.5592877184020453	1	1
11	8	2	0.6	0.1	1	0.5344237058192929	1	1	0.313661599997431	0.4209654065153993	1	1
11	9	2	0.6	0.1	1	0.558536203899026	1	1	0.3552914001047611	0.4422784106373127	1	1
11	10	2	0.6	0.1	1	0.45147161205837	1	1	0.2999613001011312	0.5651511810756287	2	1
11	11	2	0.6	0.1	1	0.4689523188978477	1	1	0.3094621002674103	0.5383213716738225	1	1
11	12	2	0.6	0.1	1	0.5198527569633611	1	1	0.4632979999296367	0.5772184629960641	1	1
11	13	2	0.6	0.1	1	0.5616385660675731	1	1	0.3268035002984107	0.4778878902776308	2	1
11	14	2	0.6	0.1	1	0.5424159955908708	1	1	0.3080178000964224	0.5423949114748225	1	1
11	15	2	0.6	0.1	1	0.5499184454587186	1	1	0.3413579999469221	0.5723834555298	1	1
11	16	2	0.6	0.1	1	0.4217484649892657	1	1	0.3226069998927414	0.4535131602752966	1	1
11	17	2	0.6	0.1	1	0.4930906765912571	1	1	0.3645290997810662	0.4649138459439945	2	1
11	18	2	0.6	0.1	1	0.536841280297266	1	1	0.2632795996032655	0.4404968255460942	1	1
11	19	2	0.6	0.1	1	0.4608162928609413	1	1	0.4504855000413954	0.5265175196967992	2	1
11	20	2	0.6	0.1	1	0.5240628212727856	1	1	0.4724111999385059	0.5638657546426371	1	1
12	1	2	0.6	0.1	1	0.468894205062262	1	1	0.5826055002398789	0.4035503063153405	2	1
12	2	2	0.6	0.1	1	0.4125710974601483	1	1	0.3642289000563323	0.4339163932176071	1	1
12	3	2	0.6	0.1	1	0.486581783694602	1	1	0.2956046997569501	0.5107903667469489	1	1
12	4	2	0.6	0.1	1	0.4153681875492928	1	1	0.240875800140202	0.4094005230072912	1	1
12	5	2	0.6	0.1	1	0.4010443749855384	1	1	0.4160245996899903	0.5603231077577362	2	1
12	6	2	0.6	0.1	1	0.5159033136006683	1	1	0.369365899823606	0.5805395646261058	1	1
12	7	2	0.6	0.1	1	0.5977053140839689	1	1	0.4138031001202762	0.5826301545307214	2	1
12	8	2	0.6	0.1	1	0.5296391059718222	1	1	0.3690908001735806	0.4659619041552551	2	1
12	9	2	0.6	0.1	1	0.511471651310267	1	1	0.3517816998064518	0.4716169810683851	2	1
12	10	2	0.6	0.1	1	0.4322259009076429	1	1	0.4331009997986257	0.4013001742524567	1	1
12	11	2	0.6	0.1	1	0.4134589596649269	1	1	0.6604121001437306	0.511250061136159	1	1
12	12	2	0.6	0.1	1	0.4318991915327812	1	1	0.5115009001456201	0.5097804201403455	1	1
12	13	2	0.6	0.1	1	0.4002063342912564	1	1	0.4702524999156594	0.5981325391183508	1	1
12	14	2	0.6	0.1	1	0.5116924087661464	1	1	0.2391281998716295	0.4582522397821903	1	1
12	15	2	0.6	0.1	1	0.532895307643494	1	1	0.3743286998942494	0.5992457762784249	2	1
12	16	2	0.6	0.1	1	0.4930619314232912	1	1	0.4018454998731613	0.4117749593221183	1	1
12	17	2	0.6	0.1	1	0.558124485788029	1	1	0.4887950997799635	0.4372611410933469	1	1
12	18	2	0.6	0.1	1	0.4501359301308621	1	1	0.5425672000274062	0.428208597425055	1	1
12	19	2	0.6	0.1	1	0.5825178632858348	1	1	0.5995404999703169	0.5014361972723946	2	1
12	20	2	0.6	0.1	1	0.53306405250272	1	1	0.4615571000613272	0.5976895533614826	2	1
13	1	1	0.5	0.5	1	0.5384315618262193	1	1	0.5120260999538004	0.4370057627636407	2	1
13	2	1	0.5	0.5	1	0.5658661777455432	1	1	0.3262006002478302	0.4627689468092068	2	1
13	3	1	0.5	0.5	1	0.5955162966570855	1	2	0.3145649996586144	0.4663997625334011	1	0
13	4	1	0.5	0.5	1	0.5677952318714492	1	2	0.3116721999831498	0.5425200655480643	2	0
13	5	1	0.5	0.5	1	0.5917376066249203	1	2	0.3380554001778364	0.409381018824486	2	0
13	6	1	0.5	0.5	1	0.5038986753364956	1	2	0.3299289001151919	0.4931380031318612	1	0
13	7	1	0.5	0.5	1	0.41730337166496	1	2	0.377847199793905	0.5973985682716494	1	0
13	8	1	0.5	0.5	1	0.4452364442708557	1	2	0.3354762000963092	0.5892317007189204	1	0
13	9	1	0.5	0.5	1	0.4749413619142041	1	2	0.2745631001889706	0.4210954898828628	1	0
13	10	1	0.5	0.5	1	0.4277818946790873	1	2	0.3389760996215045	0.4466356418341877	2	0
13	11	1	0.5	0.5	1	0.5493498522894114	1	2	0.3396687000058591	0.4805038763414974	1	0
13	12	1	0.5	0.5	1	0.5666270996771451	1	2	0.4375673001632094	0.5503489974907197	1	0
13	13	1	0.5	0.5	1	0.4944148360604731	1	2	0.3467942997813225	0.4729573205243806	1	0
13	14	1	0.5	0.5	1	0.5113025421938087	1	2	0.3891046000644565	0.4507286593368763	1	0
13	15	1	0.5	0.5	1	0.5744327523493561	1	2	0.3621453000232577	0.4470938816559843	2	0
13	16	1	0.5	0.5	1	0.486660887921905	1	2	0.3411359000019729	0.4295107292342235	1	0
13	17	1	0.5	0.5	1	0.5965082005581285	1	2	0.2947444999590516	0.557822425254661	1	0
13	18	1	0.5	0.5	1	0.5889039834783663	1	2	0.2932824003510177	0.5298000762052528	1	0
13	19	1	0.5	0.5	1	0.5227074492204401	1	2	0.4057149002328515	0.4119444365944712	2	0
13	20	1	0.5	0.5	1	0.5637486786462675	1	2	0.4191042999736965	0.4002728833622016	1	0
14	1	1	0.5	0.5	1	0.5371623474033332	1	2	0.5899986997246742	0.5365599687687584	2	0
14	2	1	0.5	0.5	1	0.5132411021198455	1	2	0.3591235997155309	0.5212067016956858	1	0
14	3	1	0.5	0.5	1	0.5596290596492393	1	2	0.3557221996597946	0.4241629805248514	1	0
14	4	1	0.5	0.5	1	0.5419095327166642	1	2	0.3779422999359667	0.526946945357497	2	0
14	5	1	0.5	0.5	1	0.4440119919336969	1	2	0.3328883997164667	0.5869711752447847	2	0
14	6	1	0.5	0.5	1	0.5279155736942073	1	2	0.4694777997210622	0.5310567194591523	1	0
14	7	1	0.5	0.5	1	0.4026478319039217	1	2	0.5287501001730561	0.4955472779835269	1	0
14	8	1	0.5	0.5	1	0.4215029210226832	1	2	0.3813538998365402	0.4920968469223272	1	0
14	9	1	0.5	0.5	1	0.4031112313859472	1	2	0.4594286000356078	0.5781187286937417	2	0
14	10	1	0.5	0.5	1	0.5560144422576474	1	2	0.3270878000184894	0.4570180572517116	2	0
14	11	1	0.5	0.5	1	0.4189599430951613	1	2	0.4180653998628259	0.4432409435407979	1	0
14	12	1	0.5	0.5	1	0.439472894863564	1	2	0.4817399000748992	0.4060253767874791	1	0
14	13	1	0.5	0.5	1	0.5699187511054491	1	2	0.343181099742651	0.4761292522403245	1	0
14	14	1	0.5	0.5	1	0.5416867527710973	1	2	0.3042266997508705	0.5471051155645839	2	0
14	15	1	0.5	0.5	1	0.5298538134444196	1	2	0.3220119001343846	0.453723980789195	1	0
14	16	1	0.5	0.5	1	0.4861439598469625	1	2	0.3661805000156164	0.5010491367537152	1	0
14	17	1	0.5	0.5	1	0.5364750234160619	1	2	0.3888122998178005	0.4809820201728152	2	0
14	18	1	0.5	0.5	1	0.5140345142632649	1	2	0.5377718997187912	0.4996740875734448	1	0
14	19	1	0.5	0.5	1	0.4933298515210819	1	2	0.4028823003172874	0.5981580965561495	1	0
14	20	1	0.5	0.5	1	0.5448774194643581	1	2	0.2793168998323381	0.4881794741900604	2	0
15	1	2	0.1	0.6	2	0.4647771473856221	1	2	0.7040986996144056	0.4346248853025324	1	1
15	2	2	0.1	0.6	2	0.5335847603406499	1	2	0.567554600071162	0.4543762076952231	1	1
15	3	2	0.1	0.6	2	0.4591542328976967	1	2	0.5693353000096977	0.5017780647002065	1	1
15	4	2	0.1	0.6	2	0.4520980644011606	1	2	0.5208602999337018	0.4276301055436679	2	1
15	5	2	0.1	0.6	2	0.5706142449019838	1	2	0.3635380999185145	0.5437558959475145	1	1
15	6	2	0.1	0.6	2	0.4736118262945317	1	2	0.7808606000617146	0.4797257652796348	1	1
15	7	2	0.1	0.6	2	0.4214232940668133	1	2	0.3788382997736335	0.4790649943649843	1	1
15	8	2	0.1	0.6	2	0.4247651295530092	1	2	0.5439186999574304	0.444575499318558	2	1
15	9	2	0.1	0.6	2	0.4394582194558653	1	2	0.5493549001403153	0.5707877901211785	2	1
15	10	2	0.1	0.6	2	0.4469822144322415	1	2	0.3217656002379954	0.4132381786826071	2	1
15	11	2	0.1	0.6	2	0.5800663591179188	1	2	0.3353973003104329	0.5006438169815655	1	1
15	12	2	0.1	0.6	2	0.5620292027866473	1	2	0.4130767998285592	0.5278912927252246	2	1
15	13	2	0.1	0.6	2	0.4408596371000538	1	2	0.3798050000332296	0.5593510079579012	1	1
15	14	2	0.1	0.6	2	0.5430714311105714	1	2	0.3707208000123501	0.5891425974728595	2	1
15	15	2	0.1	0.6	2	0.531058658141537	1	2	0.3801450999453664	0.4690067478338596	1	1
15	16	2	0.1	0.6	2	0.5873719760779488	1	2	0.363200900144875	0.4417492689317005	2	1
15	17	2	0.1	0.6	2	0.5135597139963008	1	2	0.4362719003111124	0.4349401393419189	2	1
15	18	2	0.1	0.6	2	0.5381917853736996	1	2	0.2516565001569688	0.5026844206477858	2	1
15	19	2	0.1	0.6	2	0.5868455159912136	1	2	0.307198999915272	0.4111918782870421	1	1
15	20	2	0.1	0.6	2	0.4440857984177229	1	2	0.3566907998174429	0.464311361223483	1	1
16	1	1	0.5	0.5	1	0.4596888670446247	1	2	0.668374499771744	0.5270209180826939	2	0
16	2	1	0.5	0.5	1	0.4390399216366911	1	1	0.2528894003480673	0.5656800153285164	2	1
16	3	1	0.5	0.5	1	0.5567049172292285	1	1	0.2762854001484811	0.468192146554689	1	1
16	4	1	0.5	0.5	1	0.522531331031606	1	1	0.4033443997614086	0.4859157829721975	1	1
16	5	1	0.5	0.5	1	0.4079690351176197	1	1	0.3783180001191795	0.5164128556841402	1	1
16	6	1	0.5	0.5	1	0.5540069455377996	1	1	0.2497860998846591	0.4601020063201429	2	1
16	7	1	0.5	0.5	1	0.5370058000274732	1	1	0.3013599999248981	0.4742409160428923	1	1
16	8	1	0.5	0.5	1	0.5383429045282634	1	1	0.4842675998806953	0.4246008223056198	1	1
16	9	1	0.5	0.5	1	0.5891883149008537	1	1	0.2924323999322951	0.509830235479793	1	1
16	10	1	0.5	0.5	1	0.5839793772506422	1	1	0.3827820001170039	0.4008528808572733	1	1
16	11	1	0.5	0.5	1	0.406101407607093	1	1	0.4657637998461723	0.457181489097786	2	1
16	12	1	0.5	0.5	1	0.5829948426272524	1	1	0.2807326000183821	0.4170164316029406	1	1
16	13	1	0.5	0.5	1	0.4881756439661823	1	1	0.3155698999762535	0.4925385751923664	2	1
16	14	1	0.5	0.5	1	0.5262822516031586	1	1	0.3854497000575066	0.5321488313343891	2	1
16	15	1	0.5	0.5	1	0.44652913016142	1	1	0.3478321000002325	0.4417311357099592	2	1
16	16	1	0.5	0.5	1	0.5154259494615154	1	1	0.356844499707222	0.4313240796752608	2	1
16	17	1	0.5	0.5	1	0.5037412645095166	1	1	0.3488997002132237	0.5854451853686685	1	1
16	18	1	0.5	0.5	1	0.5649709038121443	1	1	0.3401577998884022	0.5065321696449046	1	1
16	19	1	0.5	0.5	1	0.5370510466020713	1	1	0.3403886999003589	0.4992818715881845	1	1
16	20	1	0.5	0.5	1	0.5803932747312386	1	1	0.4011029000394046	0.5413090571371743	1	1
17	1	2	0.1	0.6	2	0.5421284637966313	1	1	0.489863000344485	0.4791305399838977	2	0
17	2	2	0.1	0.6	2	0.5496032341237919	1	1	0.3116890001110733	0.558208349046583	2	0
17	3	2	0.1	0.6	2	0.5796315099802876	1	1	0.3463904000818729	0.5089803230835247	2	0
17	4	2	0.1	0.6	2	0.586319466137165	1	1	0.2896243999712169	0.5525505166910638	2	0
17	5	2	0.1	0.6	2	0.5097808315676735	1	1	0.3104345998726785	0.4593048194280033	2	0
17	6	2	0.1	0.6	2	0.5572117708134373	1	1	0.47583660017699	0.4019001682817749	2	0
17	7	2	0.1	0.6	2	0.4130814700063898	1	2	0.2503442000597715	0.492658081774813	2	1
17	8	2	0.1	0.6	2	0.4153229932499723	1	2	0.2855633003637195	0.4303694000710695	2	1
17	9	2	0.1	0.6	2	0.5013068191566239	1	2	0.2477017999626696	0.4691254978080595	2	1
17	10	2	0.1	0.6	2	0.5558721050883495	1	2	0.2979908999986947	0.4131283203578253	2	1
17	11	2	0.1	0.6	2	0.5377111728565256	1	2	0.3823957000859082	0.4892048686041194	2	1
17	12	2	0.1	0.6	2	0.503004637016581	1	2	0.261275100056082	0.5334336975969125	1	1
17	13	2	0.1	0.6	2	0.4135122746550361	1	2	0.2961090002208948	0.4247550086705247	1	1
17	14	2	0.1	0.6	2	0.5495194384778278	1	2	0.3869562996551394	0.5294764168696531	2	1
17	15	2	0.1	0.6	2	0.4775423833842969	1	2	0.2646274999715388	0.5031129681938298	1	1
17	16	2	0.1	0.6	2	0.4305735382998234	1	2	0.4085907000117004	0.592674458900975	1	1
17	17	2	0.1	0.6	2	0.5081379734838554	1	2	0.2989424001425505	0.5069436309149497	1	1
17	18	2	0.1	0.6	2	0.4139941436631503	1	2	0.3957082000561059	0.4057482592577198	1	1
17	19	2	0.1	0.6	2	0.4069962917777718	1	2	0.4034067001193762	0.5627230664795334	1	1
17	20	2	0.1	0.6	2	0.43656620341256	1	2	0.425740999635309	0.442096556898405	1	1
18	1	2	0.6	0.1	1	0.443058059861152	1	2	0.4539467999711633	0.5399254300592081	1	0
18	2	2	0.6	0.1	1	0.4435233943667637	1	2	0.5053824000060558	0.4105118840397729	1	0
18	3	2	0.6	0.1	1	0.5686082219645574	1	2	0.3032655999995768	0.4909368111087808	2	0
18	4	2	0.6	0.1	1	0.5212897177812752	1	2	0.3025736999697983	0.5097735600231026	2	0
18	5	2	0.6	0.1	1	0.4845911750391171	1	2	0.2970261001028121	0.5787121386708554	2	0
18	6	2	0.6	0.1	1	0.5273468508346874	1	2	0.2787331002764404	0.4543321266394289	2	0
18	7	2	0.6	0.1	1	0.5304433003901072	1	2	0.2904846998862922	0.498918707851922	2	0
18	8	2	0.6	0.1	1	0.5132120445747583	1	2	0.3030139999464154	0.5278377085172377	2	0
18	9	2	0.6	0.1	1	0.5607098079676749	1	2	0.09465799992904067	0.534436430114494	2	0
18	10	2	0.6	0.1	1	0.4690123650245708	1	2	0.216597099788487	0.4744271726669962	2	0
18	11	2	0.6	0.1	1	0.4945384954662615	1	2	0.2573891999199986	0.5050903084778886	2	0
18	12	2	0.6	0.1	1	0.4552772313291334	1	2	0.2988176001235843	0.5200691661741368	2	0
18	13	2	0.6	0.1	1	0.5064496664506036	1	2	0.3024555002339184	0.4492135305655551	2	0
18	14	2	0.6	0.1	1	0.5448499015402227	1	2	0.2432376998476684	0.4168052070169759	2	0
18	15	2	0.6	0.1	1	0.5693874139164476	1	2	0.8199632000178099	0.5787367049699227	2	0
18	16	2	0.6	0.1	1	0.4005176285189817	1	2	0.4094607997685671	0.5559990920280615	2	0
18	17	2	0.6	0.1	1	0.5521540414706232	1	1	0.2527059996500611	0.4835184823786815	2	1
18	18	2	0.6	0.1	1	0.5522500016648313	1	2	0.3613158999942243	0.5818439874404244	2	0
18	19	2	0.6	0.1	1	0.4857173901048929	1	2	0.4712417996488512	0.568054789014512	2	0
18	20	2	0.6	0.1	1	0.5369030946376656	1	2	0.3193155000917614	0.446849408803962	2	0
19	1	1	0.5	0.5	1	0.5984951315282652	1	2	0.5312890997156501	0.4961247257738876	2	0
19	2	1	0.5	0.5	1	0.552099151737409	1	2	0.1053086998872459	0.5288347121252488	2	0
19	3	1	0.5	0.5	1	0.5318341387181693	1	2	0.2703070999123156	0.5226054593633497	2	0
19	4	1	0.5	0.5	1	0.4231814188323657	1	1	0.19658870017156	0.5713444500644012	1	1
19	5	1	0.5	0.5	1	0.5451719649402962	1	1	0.2734094001352787	0.416226357555452	2	1
19	6	1	0.5	0.5	1	0.4191283947876023	1	1	0.2738235997967422	0.4690024006713235	2	1
19	7	1	0.5	0.5	1	0.4837139798009019	1	1	0.3349127001129091	0.4747674502516997	2	1
19	8	1	0.5	0.5	1	0.4491012671323199	1	1	0.3311407999135554	0.4999688130961472	1	1
19	9	1	0.5	0.5	1	0.4451150952569457	1	2	0.2626216998323798	0.5941339453598706	1	0
19	10	1	0.5	0.5	1	0.4332145284924934	1	1	0.2252807999029756	0.410987044680882	1	1
19	11	1	0.5	0.5	1	0.5880163576836015	1	2	0.1444423999637365	0.5582191382781193	2	0
19	12	1	0.5	0.5	1	0.4523177453914507	1	1	0.2514599999412894	0.5501237027484449	1	1
19	13	1	0.5	0.5	1	0.4602941563452594	1	2	0.1801791000179946	0.4402159735865272	2	0
19	14	1	0.5	0.5	1	0.5801666724791796	1	1	0.2516816998831928	0.4763144043665581	1	1
19	15	1	0.5	0.5	1	0.5031193220047954	1	2	0.3451935001648962	0.4358109086300709	2	0
19	16	1	0.5	0.5	1	0.588993757116915	1	1	0.351176000200212	0.4143294316335102	2	1
19	17	1	0.5	0.5	1	0.5425351016768573	1	2	0.2470101001672447	0.539375642559639	1	0
19	18	1	0.5	0.5	1	0.4708137632117576	1	1	0.3042326997965574	0.4118300209164972	1	1
19	19	1	0.5	0.5	1	0.5107227765393401	1	2	0.2380305998958647	0.482892759432467	2	0
19	20	1	0.5	0.5	1	0.5587673377639442	1	1	0.1920270002447069	0.5197473594900598	2	1
20	1	1	0.5	0.5	1	0.5456219146571761	1	1	0.470043099950999	0.4326910884720361	2	1
20	2	1	0.5	0.5	1	0.5119122189135474	1	2	0.1792675000615418	0.43457740742359	2	0
20	3	1	0.5	0.5	1	0.5029491333797624	1	2	0.2188679999671876	0.5655347242240388	2	0
20	4	1	0.5	0.5	1	0.4022907600781848	1	1	0.2203911999240518	0.5020124319478649	2	1
20	5	1	0.5	0.5	1	0.5711627919035422	1	1	0.18519870005548	0.468026739566236	2	1
20	6	1	0.5	0.5	1	0.5328550013064721	1	1	0.3113637999631464	0.4461079578002179	2	1
20	7	1	0.5	0.5	1	0.5146524775242354	1	1	0.2187471003271639	0.4047846523871977	2	1
20	8	1	0.5	0.5	1	0.4488225637391305	1	2	0.2719042999669909	0.5696793690671443	2	0
20	9	1	0.5	0.5	1	0.529225707389541	1	2	0.1988205998204648	0.438902519106221	2	0
20	10	1	0.5	0.5	1	0.5641309747979592	1	2	0.2188987000845373	0.46081579774106	2	0
20	11	1	0.5	0.5	1	0.5912687083625292	1	2	0.3124741995707154	0.5156875632474804	2	0
20	12	1	0.5	0.5	1	0.552753714774369	1	1	0.231453400105238	0.5265926452948747	1	1
20	13	1	0.5	0.5	1	0.5421540974857469	1	1	0.4378506001085043	0.5208217777542328	2	1
20	14	1	0.5	0.5	1	0.477567959810716	1	1	0.4959331001155078	0.5676060048911137	2	1
20	15	1	0.5	0.5	1	0.4232840840825088	1	1	0.427492399699986	0.4758315387273762	2	1
20	16	1	0.5	0.5	1	0.4563594491891688	1	1	0.4248206000775099	0.5705565286598834	1	1
20	17	1	0.5	0.5	1	0.5931241452148005	1	2	0.2743103001266718	0.570667677669821	2	0
20	18	1	0.5	0.5	1	0.5660106884044562	1	2	0.4105290998704731	0.4914146871069238	2	0
20	19	1	0.5	0.5	1	0.5862244609900558	1	2	0.3921977002173662	0.4549511848623241	2	0
20	20	1	0.5	0.5	1	0.5165112314633136	1	2	0.3970515998080373	0.4476349365637598	2	0
