blockNum	trialNum	condition	pWin1	pWin2	optimalResponse	preStimulusDelay	responded	response	rt	preFeedbackDelay	outcome	optimal
1	1	2	0.1	0.6	2	0.4010334062423962	1	1	1.417308200150728	0.4575126400658381	2	0
1	2	2	0.1	0.6	2	0.5044052402791462	1	1	0.5082706999965012	0.5459098694864195	2	0
1	3	2	0.1	0.6	2	0.4421817822397941	1	1	1.003790799994022	0.5772032322551578	1	0
1	4	2	0.1	0.6	2	0.4184747885107705	1	2	0.6324179000221193	0.4998455441108554	1	1
1	5	2	0.1	0.6	2	0.5407860803781172	0	n/a	n/a	n/a	n/a	n/a
1	6	2	0.1	0.6	2	0.4403567893803763	1	1	0.487824599724263	0.4408685924943336	1	0
1	7	2	0.1	0.6	2	0.5699998998513788	1	1	0.3180672000162303	0.4002300917343323	2	0
1	8	2	0.1	0.6	2	0.408858331446574	1	1	0.3566431002691388	0.4778083066740491	2	0
1	9	2	0.1	0.6	2	0.5809525975206613	1	2	0.26792800007388	0.5937469796424552	2	1
1	10	2	0.1	0.6	2	0.4334053686520075	1	2	0.2742502000182867	0.4584361317270379	2	1
1	11	2	0.1	0.6	2	0.4021895506885438	1	1	0.3970506000332534	0.4649015358569372	1	0
1	12	2	0.1	0.6	2	0.4191317515881434	1	2	0.5267348997294903	0.5998588423995301	2	1
1	13	2	0.1	0.6	2	0.5416239470772146	1	1	0.3514032000675797	0.5547254447191984	2	0
1	14	2	0.1	0.6	2	0.5856010041748834	1	1	0.3442802997305989	0.5139558659114721	2	0
1	15	2	0.1	0.6	2	0.5618896222618246	1	1	0.2795241000130773	0.5176101278665676	2	0
1	16	2	0.1	0.6	2	0.5064959795284162	1	2	0.2545878998935223	0.4911172661594969	2	1
1	17	2	0.1	0.6	2	0.5671680670811179	1	2	0.4122779997996986	0.584424826091267	1	1
1	18	2	0.1	0.6	2	0.5238236831755801	1	1	0.3797822999767959	0.5702426706302288	2	0
1	19	2	0.1	0.6	2	0.5148439448607223	1	2	0.3469222998246551	0.5105278895556631	1	1
1	20	2	0.1	0.6	2	0.409751853023458	1	1	0.3559112004004419	0.5233517234086902	2	0
2	1	2	0.6	0.1	1	0.5865182308633947	1	2	0.4880591998808086	0.4081814813680952	2	0
2	2	2	0.6	0.1	1	0.5784943226277806	1	2	0.2625335003249347	0.4701069652918208	2	0
2	3	2	0.6	0.1	1	0.4171247527906201	1	1	0.2609614003449678	0.5445346197987643	2	1
2	4	2	0.6	0.1	1	0.4649599015410184	1	1	0.2467466997914016	0.599268535698123	2	1
2	5	2	0.6	0.1	1	0.5256359182388215	1	1	0.2545710997655988	0.513972456627143	1	1
2	6	2	0.6	0.1	1	0.5987896034819985	1	2	0.2508424003608525	0.4002847473318675	2	0
2	7	2	0.6	0.1	1	0.4638475941220789	1	2	0.2270304001867771	0.4037392469544088	2	0
2	8	2	0.6	0.1	1	0.5537897656328363	1	1	0.1836966997943819	0.5354885394463362	1	1
2	9	2	0.6	0.1	1	0.5702295136689713	1	1	0.3494755001738667	0.5611704707939003	2	1
2	10	2	0.6	0.1	1	0.4535689312206387	1	2	0.2488588998094201	0.406672176155243	2	0
2	11	2	0.6	0.1	1	0.5301845617831513	1	2	0.1939120003953576	0.4481875336507069	2	0
2	12	2	0.6	0.1	1	0.4653793296569619	1	2	0.2683564000762999	0.5706410358875763	2	0
2	13	2	0.6	0.1	1	0.4611436058918225	1	1	0.202118500135839	0.4504598035711581	1	1
2	14	2	0.6	0.1	1	0.4154839385880663	1	1	0.34375	0.4311486918338728	2	1
2	15	2	0.6	0.1	1	0.4921336738878366	1	2	0.2244051001034677	0.5976185583961561	1	0
2	16	2	0.6	0.1	1	0.5762715497269129	1	2	0.3274061004631221	0.4634427072798767	2	0
2	17	2	0.6	0.1	1	0.5680164851154184	1	2	0.3174175997264683	0.4801979879461332	1	0
2	18	2	0.6	0.1	1	0.5356053404886079	1	1	0.2495277998968959	0.5365215148613528	2	1
2	19	2	0.6	0.1	1	0.4502093898788295	1	2	0.2056291000917554	0.5730596477126101	2	0
2	20	2	0.6	0.1	1	0.5150794370475449	1	1	0.2266023000702262	0.4186262246055574	1	1
3	1	1	0.5	0.5	1	0.5192272515281089	1	1	0.5802923999726772	0.5424083712682758	2	1
3	2	1	0.5	0.5	1	0.4999139629502125	1	1	0.2850410002283752	0.4030308477959665	1	1
3	3	1	0.5	0.5	1	0.5160370574631278	1	2	0.2360213999636471	0.4677934106827226	2	0
3	4	1	0.5	0.5	1	0.4453031304900571	1	1	0.2016286998987198	0.4666499186811866	1	1
3	5	1	0.5	0.5	1	0.5340242680843177	1	1	0.3326786998659372	0.4235733149410816	2	1
3	6	1	0.5	0.5	1	0.5663727712471001	1	1	0.2539174002595246	0.5093129870628038	2	1
3	7	1	0.5	0.5	1	0.4574696518762234	1	2	0.5101771997287869	0.5222318319633271	1	0
3	8	1	0.5	0.5	1	0.5867510659401625	1	2	0.3102206997573376	0.4707946900394413	2	0
3	9	1	0.5	0.5	1	0.4916311221727596	1	1	0.3456950997933745	0.4927056217442076	2	1
3	10	1	0.5	0.5	1	0.5854761160524259	1	1	0.3610688000917435	0.4725463952339181	1	1
3	11	1	0.5	0.5	1	0.5612975722952656	1	2	0.2560934997163713	0.4696023203609326	2	0
3	12	1	0.5	0.5	1	0.5157809808624696	1	2	0.2921559000387788	0.5997991475300283	2	0
3	13	1	0.5	0.5	1	0.5845386903153725	1	2	0.2399013000540435	0.4657401274871598	2	0
3	14	1	0.5	0.5	1	0.5473424638132538	1	1	0.1700073000974953	0.5504503547495856	2	1
3	15	1	0.5	0.5	1	0.4160310025954481	1	1	0.223995600361377	0.4855396182220911	1	1
3	16	1	0.5	0.5	1	0.5405995055635391	1	1	0.3161404998973012	0.5050670492686118	2	1
3	17	1	0.5	0.5	1	0.485223301041166	1	1	0.1953041995875537	0.4973984677459777	1	1
3	18	1	0.5	0.5	1	0.4677708489119577	1	2	0.229959299787879	0.5573322789435434	2	0
3	19	1	0.5	0.5	1	0.4632722132439611	1	1	0.2373440000228584	0.4533163552024543	2	1
3	20	1	0.5	0.5	1	0.4952807305213284	1	1	0.2316145999357104	0.4359041577398555	2	1
4	1	1	0.5	0.5	1	0.4788003445989789	1	1	0.4326228997670114	0.5015708583342604	2	1
4	2	1	0.5	0.5	1	0.580995843684015	1	2	0.2396483002230525	0.4710484641730273	2	0
4	3	1	0.5	0.5	1	0.5823489639877386	1	2	0.4236461999826133	0.4882671157112753	2	0
4	4	1	0.5	0.5	1	0.59118810709736	1	1	0.2910829996690154	0.4118979839178973	2	1
4	5	1	0.5	0.5	1	0.5526302616687291	1	1	0.2961736000142992	0.4438799310321975	1	1
4	6	1	0.5	0.5	1	0.4975580283630687	1	2	0.4205483999103308	0.4695502265944509	2	0
4	7	1	0.5	0.5	1	0.5823449525094009	1	2	0.2510265000164509	0.4657278393181236	2	0
4	8	1	0.5	0.5	1	0.551386314421826	1	1	0.2197138997726142	0.517389008811029	2	1
4	9	1	0.5	0.5	1	0.4884813950937181	1	1	0.8637329000048339	0.5329464165690798	1	1
4	10	1	0.5	0.5	1	0.4740342299538472	1	1	0.312622900120914	0.4249879690243622	2	1
4	11	1	0.5	0.5	1	0.5191680146887039	1	1	0.2881853003054857	0.4893609067779454	2	1
4	12	1	0.5	0.5	1	0.5238958173396601	1	2	0.261412899941206	0.4051592448507237	2	0
4	13	1	0.5	0.5	1	0.5668051344411302	1	2	0.3618757999502122	0.4996170700030911	2	0
4	14	1	0.5	0.5	1	0.5155101640817255	1	1	0.3507770001888275	0.4453531147928097	1	1
4	15	1	0.5	0.5	1	0.4713371329494483	1	1	0.3241964001208544	0.564863098222496	1	1
4	16	1	0.5	0.5	1	0.5674335789234524	1	1	0.311920799780637	0.5492476214212892	1	1
4	17	1	0.5	0.5	1	0.5442884668919392	1	1	0.2772693997249007	0.5180383987656713	1	1
4	18	1	0.5	0.5	1	0.4751681344630263	1	1	0.2922594998963177	0.4480398378423432	2	1
4	19	1	0.5	0.5	1	0.4515095771658715	1	1	0.2431300999596715	0.4714990407145558	2	1
4	20	1	0.5	0.5	1	0.5941369373710009	1	2	0.5026950999163091	0.558839796238999	2	0
5	1	2	0.1	0.6	2	0.446567956368217	1	2	0.7022274998016655	0.4293629769239796	1	1
5	2	2	0.1	0.6	2	0.4564293954554386	1	1	0.2739987997338176	0.4873512171251935	2	0
5	3	2	0.1	0.6	2	0.5570518418493654	1	1	0.2068076999858022	0.5921933493157173	2	0
5	4	2	0.1	0.6	2	0.5888802818496455	1	2	0.27514380030334	0.5737070125320736	2	1
5	5	2	0.1	0.6	2	0.5604798219037982	1	2	0.3502485998906195	0.5242171896247942	1	1
5	6	2	0.1	0.6	2	0.4801182142007305	1	2	0.2705555995926261	0.5471340138922901	1	1
5	7	2	0.1	0.6	2	0.5109086913952177	1	1	0.2385506997816265	0.5681274404136865	2	0
5	8	2	0.1	0.6	2	0.5350434121218099	1	2	0.2197505999356508	0.5088317877959786	1	1
5	9	2	0.1	0.6	2	0.551722508848133	1	2	0.268157800193876	0.4579378662170748	2	1
5	10	2	0.1	0.6	2	0.4578983503956841	1	2	0.3020258001051843	0.4549320557166514	2	1
5	11	2	0.1	0.6	2	0.4344799778513595	1	1	0.2649770001880825	0.5578258024257431	2	0
5	12	2	0.1	0.6	2	0.4694330660728236	1	2	0.2853428996168077	0.4084612869012477	1	1
5	13	2	0.1	0.6	2	0.5048921724855668	1	2	0.2645535003393888	0.4817743263385308	2	1
5	14	2	0.1	0.6	2	0.5035407481759964	1	1	0.2192315999418497	0.4090042901737492	1	0
5	15	2	0.1	0.6	2	0.5875027452369769	1	1	0.3060738001950085	0.5347279732833154	2	0
5	16	2	0.1	0.6	2	0.5585440261550376	1	1	0.2494973996654153	0.531810104389815	2	0
5	17	2	0.1	0.6	2	0.4858617149437116	1	2	0.2400675001554191	0.4544941708625894	1	1
5	18	2	0.1	0.6	2	0.4099614908036929	1	2	0.3142328001558781	0.4794322034226826	2	1
5	19	2	0.1	0.6	2	0.5598813655364616	1	2	0.3027615998871624	0.4265809896681698	2	1
5	20	2	0.1	0.6	2	0.5399552754701049	1	2	0.339609700255096	0.4344111871571005	1	1
6	1	1	0.5	0.5	1	0.4833046694404092	1	2	0.5730232000350952	0.5510508778521869	1	0
6	2	1	0.5	0.5	1	0.5341750857707067	1	1	0.3138119000941515	0.5857373596235873	2	1
6	3	1	0.5	0.5	1	0.4982319635779214	1	2	0.2924665003083646	0.5113569389403169	2	0
6	4	1	0.5	0.5	1	0.5467031333650501	1	2	0.2391037000343204	0.4281980099477957	1	0
6	5	1	0.5	0.5	1	0.5708163189379576	1	2	0.2827285998500884	0.5529225326778962	2	0
6	6	1	0.5	0.5	1	0.4892602987555422	1	1	0.04827299993485212	0.5105090980346452	2	1
6	7	1	0.5	0.5	1	0.4577029442946138	1	1	0.6154189999215305	0.4569497650452796	1	1
6	8	1	0.5	0.5	1	0.5407939814970728	1	1	0.4545843997038901	0.4730317564733139	2	1
6	9	1	0.5	0.5	1	0.4914065965680769	1	2	0.2577732997015119	0.5641470208435917	2	0
6	10	1	0.5	0.5	1	0.4510853493516628	1	2	0.1267082998529077	0.5547297025342628	2	0
6	11	1	0.5	0.5	1	0.4283509690918441	1	2	0.3175809001550078	0.4634414582922403	2	0
6	12	1	0.5	0.5	1	0.4659301724688573	1	2	0.2446535998024046	0.4533494564598366	1	0
6	13	1	0.5	0.5	1	0.4592500011318638	1	1	0.2165469001047313	0.4079748465629205	1	1
6	14	1	0.5	0.5	1	0.4544912386809666	1	1	0.3084072996862233	0.4406230864911356	2	1
6	15	1	0.5	0.5	1	0.5044465120952191	1	2	0.2889483999460936	0.5579561067033303	2	0
6	16	1	0.5	0.5	1	0.5359865392347958	1	2	0.249292700085789	0.5838426074090104	2	0
6	17	1	0.5	0.5	1	0.4465220586606137	1	2	0.2843971997499466	0.5082154438579677	2	0
6	18	1	0.5	0.5	1	0.5675355010099371	1	1	0.266410700045526	0.5832022471009343	1	1
6	19	1	0.5	0.5	1	0.565117535009302	1	1	0.3144921003840864	0.4673694576203462	2	1
6	20	1	0.5	0.5	1	0.5125915282553195	1	1	0.2543166996911168	0.4880183076501204	2	1
7	1	2	0.6	0.1	1	0.4955440124529313	1	2	0.6913076001219451	0.5500883662583783	2	0
7	2	2	0.6	0.1	1	0.5233414582454949	1	2	0.4664137000218034	0.5240439513263726	2	0
7	3	2	0.6	0.1	1	0.4151882589051937	1	1	0.2224181997589767	0.4151853957095258	1	1
7	4	2	0.6	0.1	1	0.4333481981914325	1	1	0.2965748002752662	0.5019827775458265	2	1
7	5	2	0.6	0.1	1	0.5925808466001679	1	1	0.2229824000969529	0.476661139086433	2	1
7	6	2	0.6	0.1	1	0.4860234565280185	1	1	0.2460648999549448	0.4261744258109306	2	1
7	7	2	0.6	0.1	1	0.5570322183833508	1	2	0.2455567000433803	0.4937868090853626	2	0
7	8	2	0.6	0.1	1	0.5381921992378431	1	2	0.1161520001478493	0.4487100382840958	1	0
7	9	2	0.6	0.1	1	0.4096089676959669	1	2	0.3144746003672481	0.4867065965971771	2	0
7	10	2	0.6	0.1	1	0.4376960755184097	1	2	0.2623515999875963	0.5241731402681058	2	0
7	11	2	0.6	0.1	1	0.5019300178776327	1	2	0.2934131999500096	0.5460888223823911	2	0
7	12	2	0.6	0.1	1	0.5682905555430359	1	1	0.2746850997209549	0.5161964609528888	1	1
7	13	2	0.6	0.1	1	0.4303493134262846	1	1	0.5080856997519732	0.5289477206405948	1	1
7	14	2	0.6	0.1	1	0.4212734945387032	1	1	0.2922140001319349	0.529574262512498	1	1
7	15	2	0.6	0.1	1	0.4124693193703663	1	1	0.2998476000502706	0.4177557898261718	2	1
7	16	2	0.6	0.1	1	0.4114307561561859	1	2	0.2620149003341794	0.5410969041031967	2	0
7	17	2	0.6	0.1	1	0.5797473694824862	1	1	0.1333586000837386	0.4030193697745159	1	1
7	18	2	0.6	0.1	1	0.427797514782629	1	1	0.273301700130105	0.5731134727818175	2	1
7	19	2	0.6	0.1	1	0.5630528202023872	1	1	0.2442310997284949	0.4085697861836275	1	1
7	20	2	0.6	0.1	1	0.4047884694550227	1	1	0.4711568998172879	0.40434924257655	1	1
8	1	1	0.5	0.5	1	0.5871711077445495	1	1	0.4738547001034021	0.4270468016581924	2	1
8	2	1	0.5	0.5	1	0.5902940947069422	1	1	0.3674347000196576	0.4151042867923254	2	1
8	3	1	0.5	0.5	1	0.4196588312209714	1	1	0.3290209001861513	0.432426572675807	1	1
8	4	1	0.5	0.5	1	0.4388879941565401	1	2	0.3276218003593385	0.4405149557916783	2	0
8	5	1	0.5	0.5	1	0.5721211619150306	1	2	0.232609000056982	0.532096591708771	1	0
8	6	1	0.5	0.5	1	0.5549837047907081	1	2	0.3296186998486519	0.4307263882918378	2	0
8	7	1	0.5	0.5	1	0.5279746709970202	1	2	0.3299230001866817	0.5851507559532534	2	0
8	8	1	0.5	0.5	1	0.512210837089096	1	1	0.2618597000837326	0.5455884025653945	1	1
8	9	1	0.5	0.5	1	0.5626286801014615	1	1	0.3617783999070525	0.521313421884243	2	1
8	10	1	0.5	0.5	1	0.5384754946715022	1	2	0.3014386999420822	0.5223218796357394	2	0
8	11	1	0.5	0.5	1	0.4822739272093575	1	2	0.3252837997861207	0.5687781129766089	2	0
8	12	1	0.5	0.5	1	0.4459220926414664	1	1	0.2598716001957655	0.5392500692679068	2	1
8	13	1	0.5	0.5	1	0.4190031881173611	1	1	0.3292147000320256	0.4985725339510417	1	1
8	14	1	0.5	0.5	1	0.550541597303959	1	1	0.3054486000910401	0.5321901370468556	1	1
8	15	1	0.5	0.5	1	0.4204132899850497	1	1	0.2600409002043307	0.4143688582779201	2	1
8	16	1	0.5	0.5	1	0.4519294946614663	1	1	0.3598265997134149	0.5041886098456188	2	1
8	17	1	0.5	0.5	1	0.4757951799232771	1	2	0.2318998998962343	0.5626417660962854	1	0
8	18	1	0.5	0.5	1	0.543469683803145	1	2	0.3409759998321533	0.4964223224197296	2	0
8	19	1	0.5	0.5	1	0.5817043873810899	1	2	0.06466409983113408	0.5099267335062512	2	0
8	20	1	0.5	0.5	1	0.5584095189992782	1	2	0.3842603997327387	0.500845499674282	2	0
9	1	2	0.1	0.6	2	0.5757280974494908	1	1	0.4140277002006769	0.4997303857799417	1	0
9	2	2	0.1	0.6	2	0.5378189622588897	1	1	0.2479166002012789	0.5683396216176435	2	0
9	3	2	0.1	0.6	2	0.508128585866142	1	1	0.4329157997854054	0.4605581712294815	2	0
9	4	2	0.1	0.6	2	0.5937447362188872	1	2	0.2184050003997982	0.4158431459715108	1	1
9	5	2	0.1	0.6	2	0.4192470486513546	1	2	0.242798900231719	0.4538206123520008	1	1
9	6	2	0.1	0.6	2	0.4176734718195145	1	2	0.2843089001253247	0.5903784554464732	2	1
9	7	2	0.1	0.6	2	0.5797801467289141	1	2	0.3061643000692129	0.4643415829231378	2	1
9	8	2	0.1	0.6	2	0.4225169170790285	1	2	0.1955963000655174	0.4330181416338844	1	1
9	9	2	0.1	0.6	2	0.5316320580932501	1	2	0.3194534000940621	0.5114511936330972	2	1
9	10	2	0.1	0.6	2	0.4618229741239848	1	2	0.3903513997793198	0.4717536034247795	1	1
9	11	2	0.1	0.6	2	0.5777221386477882	1	2	0.3992050001397729	0.5824249653567579	2	1
9	12	2	0.1	0.6	2	0.5372216197858654	1	2	0.3180551999248564	0.5388994818294743	2	1
9	13	2	0.1	0.6	2	0.4941235360785035	1	1	0.2526030000299215	0.5006220889405212	2	0
9	14	2	0.1	0.6	2	0.5882706011598522	1	1	0.320816199760884	0.5342136917556011	2	0
9	15	2	0.1	0.6	2	0.5003478403856328	1	2	0.3330950001254678	0.5070045645262941	1	1
9	16	2	0.1	0.6	2	0.4708844478167853	1	2	0.2954365997575223	0.4940691708325199	2	1
9	17	2	0.1	0.6	2	0.4529226636362225	1	2	0.2890093997120857	0.586342365049567	2	1
9	18	2	0.1	0.6	2	0.4842151936805905	1	1	0.555806000251323	0.5105798835059217	2	0
9	19	2	0.1	0.6	2	0.4390189747918232	1	1	0.2653100001625717	0.4984095998348212	2	0
9	20	2	0.1	0.6	2	0.461171353128105	1	1	0.2547393003478646	0.5164726371670448	2	0
10	1	1	0.5	0.5	1	0.4232763089471932	1	2	0.4402546999044716	0.4736020662642232	1	0
10	2	1	0.5	0.5	1	0.4824959375316867	1	2	0.2302394001744688	0.4710045392425412	2	0
10	3	1	0.5	0.5	1	0.4349840131289952	1	2	0.2497610999271274	0.5816141276680766	2	0
10	4	1	0.5	0.5	1	0.4026574074367708	1	1	0.2260672003030777	0.501860722799766	2	1
10	5	1	0.5	0.5	1	0.4768648940937383	1	1	0.2093127998523414	0.4803775074668508	2	1
10	6	1	0.5	0.5	1	0.5985096886380292	1	1	0.3434199001640081	0.4527011593275528	1	1
10	7	1	0.5	0.5	1	0.5240977377811412	1	1	0.2572232000529766	0.4512850569137187	2	1
10	8	1	0.5	0.5	1	0.5629230097021939	1	1	0.2563255000859499	0.4279603726691707	2	1
10	9	1	0.5	0.5	1	0.4122387968072127	1	1	0.2614523000083864	0.4298391661955363	2	1
10	10	1	0.5	0.5	1	0.5063765979589985	1	2	0.5301566999405622	0.5460816480573548	2	0
10	11	1	0.5	0.5	1	0.4331691843469156	1	2	0.3366040997207165	0.5601204244542121	1	0
10	12	1	0.5	0.5	1	0.4047937977246875	1	2	0.533360100351274	0.5331359507517107	2	0
10	13	1	0.5	0.5	1	0.5284618939437221	1	1	0.3324325000867248	0.4011471202513219	1	1
10	14	1	0.5	0.5	1	0.4312394971847003	1	1	0.4577158996835351	0.4221116673471706	2	1
10	15	1	0.5	0.5	1	0.4314252570510034	1	2	0.454016599804163	0.5860432594353149	2	0
10	16	1	0.5	0.5	1	0.4111595772401058	1	2	0.2490544002503157	0.4998409206258114	1	0
10	17	1	0.5	0.5	1	0.4356522104097884	1	2	0.2781626000069082	0.5160380947825125	2	0
10	18	1	0.5	0.5	1	0.431681655817356	1	2	0.2057898999191821	0.5545391487879393	1	0
10	19	1	0.5	0.5	1	0.5728194691774071	1	1	0.222978699952364	0.5400896292167866	2	1
10	20	1	0.5	0.5	1	0.5438493836717054	1	2	0.2553937998600304	0.5367226193596077	2	0
11	1	2	0.6	0.1	1	0.415390804872919	1	2	0.3529946999624372	0.4516164404984021	2	0
11	2	2	0.6	0.1	1	0.4717509630261822	1	1	0.2676687003113329	0.4908994247966625	2	1
11	3	2	0.6	0.1	1	0.4562784983067438	1	1	0.2366641997359693	0.548536946333155	2	1
11	4	2	0.6	0.1	1	0.4482727523447483	1	2	0.2789795999415219	0.5490388274601592	2	0
11	5	2	0.6	0.1	1	0.5410438779377391	1	2	0.403791300021112	0.5628868359980203	2	0
11	6	2	0.6	0.1	1	0.5316184543522285	1	2	0.225002400111407	0.4030168829030857	2	0
11	7	2	0.6	0.1	1	0.4830932731852967	1	2	0.2469063000753522	0.5290769547800668	2	0
11	8	2	0.6	0.1	1	0.5824430819590067	1	1	0.3603038997389376	0.5737645743061046	2	1
11	9	2	0.6	0.1	1	0.4572679729301476	1	1	0.3728670002892613	0.4376923278349108	1	1
11	10	2	0.6	0.1	1	0.5109580895382718	1	1	0.3491988000459969	0.494965154428584	2	1
11	11	2	0.6	0.1	1	0.4496366321374739	1	1	0.3201949996873736	0.5322332588789964	1	1
11	12	2	0.6	0.1	1	0.4972517730243559	1	1	0.4733466999605298	0.404146874012341	1	1
11	13	2	0.6	0.1	1	0.4669486559879475	1	1	0.3159456001594663	0.4137070404224229	2	1
11	14	2	0.6	0.1	1	0.5550134901998761	1	1	0.2843241998925805	0.4581951991694901	1	1
11	15	2	0.6	0.1	1	0.4487422787169005	1	1	0.3645795001648366	0.5104528855486311	2	1
11	16	2	0.6	0.1	1	0.4113849941454671	1	1	0.3940563001669943	0.4432227537314647	1	1
11	17	2	0.6	0.1	1	0.5730983247835	1	1	0.4138620002195239	0.5442407378995585	1	1
11	18	2	0.6	0.1	1	0.455401837090383	1	1	0.4788330998271704	0.590486505875868	2	1
11	19	2	0.6	0.1	1	0.5114385840194864	1	1	0.2725005000829697	0.5404927462328705	1	1
11	20	2	0.6	0.1	1	0.588029152369373	1	1	0.2918877000920475	0.5811698710892523	1	1
12	1	1	0.5	0.5	1	0.5604983101041782	1	2	0.6352587002329528	0.4258995056759456	2	0
12	2	1	0.5	0.5	1	0.4586463334884539	1	2	0.2348857000470161	0.574272458723344	1	0
12	3	1	0.5	0.5	1	0.5130268021798525	1	2	0.2720158002339303	0.4861977165963347	2	0
12	4	1	0.5	0.5	1	0.5707483991812332	1	1	0.2576439999975264	0.5416958396755491	2	1
12	5	1	0.5	0.5	1	0.5130442046859732	1	1	0.2576863998547196	0.528550187476429	2	1
12	6	1	0.5	0.5	1	0.5788537818108312	1	1	0.3497033999301493	0.5756938804278561	1	1
12	7	1	0.5	0.5	1	0.5543351020609968	1	1	0.3596077999100089	0.4713693511214738	2	1
12	8	1	0.5	0.5	1	0.5498278386957957	1	1	0.3449810999445617	0.4861391714242942	2	1
12	9	1	0.5	0.5	1	0.5187492719042116	1	2	0.466962699778378	0.4215393863735032	2	0
12	10	1	0.5	0.5	1	0.5593493597824346	1	2	0.2844036999158561	0.4487176103626541	1	0
12	11	1	0.5	0.5	1	0.4275299561591692	1	2	0.4778754999861121	0.5712254604698986	2	0
12	12	1	0.5	0.5	1	0.5359806544431491	1	2	0.278477500192821	0.5640553239550291	2	0
12	13	1	0.5	0.5	1	0.5916412730251898	1	2	0.3546573002822697	0.4464926008029958	1	0
12	14	1	0.5	0.5	1	0.5089893062572327	1	1	0.2781822998076677	0.5530894192543327	1	1
12	15	1	0.5	0.5	1	0.5910859224578869	1	1	0.4192265998572111	0.5298438135186603	2	1
12	16	1	0.5	0.5	1	0.4453014941086858	1	2	0.2789965998381376	0.5626085190402086	2	0
12	17	1	0.5	0.5	1	0.5939458576624432	1	2	0.3607891001738608	0.4798582318196104	1	0
12	18	1	0.5	0.5	1	0.4609578270732491	1	2	0.3174119000323117	0.5251761405837549	2	0
12	19	1	0.5	0.5	1	0.5339585072126104	1	1	0.2792708999477327	0.4303767254661334	2	1
12	20	1	0.5	0.5	1	0.4487638745580094	1	1	0.4040164002217352	0.4621028895594952	2	1
13	1	2	0.1	0.6	2	0.5180427481021332	1	2	0.5021691001020372	0.5038104999201999	2	1
13	2	2	0.1	0.6	2	0.4793283078646681	1	2	0.2746479995548725	0.5635695270158383	2	1
13	3	2	0.1	0.6	2	0.4288966858343317	1	1	0.3358497996814549	0.537471139696583	2	0
13	4	2	0.1	0.6	2	0.5505788337410948	1	1	0.2716733999550343	0.4484697142992794	2	0
13	5	2	0.1	0.6	2	0.4885993077487706	1	1	0.2302103997208178	0.5121832162393023	2	0
13	6	2	0.1	0.6	2	0.4718879359812984	1	2	0.2208819999359548	0.490931756024469	1	1
13	7	2	0.1	0.6	2	0.4337480934650185	1	2	0.3363637998700142	0.5570508370900739	1	1
13	8	2	0.1	0.6	2	0.4430004840920173	1	2	0.4354717996902764	0.5366068878748926	1	1
13	9	2	0.1	0.6	2	0.4460793055541702	1	2	0.3297719000838697	0.5501186996622526	2	1
13	10	2	0.1	0.6	2	0.4687736058121133	1	2	0.4047518000006676	0.4942476474609431	1	1
13	11	2	0.1	0.6	2	0.5457144325795	1	2	0.2811751998960972	0.4438842196004722	1	1
13	12	2	0.1	0.6	2	0.5645137688928697	1	2	0.3154202001169324	0.5175482695058433	1	1
13	13	2	0.1	0.6	2	0.5552225941339527	1	2	0.2093722997233272	0.4764500935504624	1	1
13	14	2	0.1	0.6	2	0.562231644622999	1	2	0.224430600181222	0.4812925659629194	2	1
13	15	2	0.1	0.6	2	0.5338750756393598	1	2	0.2944762003608048	0.4943053328848031	2	1
13	16	2	0.1	0.6	2	0.565378651257348	1	2	0.2770052002742887	0.4820272837978603	1	1
13	17	2	0.1	0.6	2	0.5756715050201402	1	2	0.4178708996623755	0.5889375685377127	1	1
13	18	2	0.1	0.6	2	0.5759963381323162	1	2	0.3758090999908745	0.4756397232859888	1	1
13	19	2	0.1	0.6	2	0.4878466068448569	1	2	0.4054751000367105	0.4054308919414937	1	1
13	20	2	0.1	0.6	2	0.5927482481002146	1	2	0.3314026999287307	0.5501753245991744	2	1
14	1	2	0.1	0.6	2	0.554223205538932	1	2	0.4002549001015723	0.4867250360874573	2	1
14	2	2	0.1	0.6	2	0.5017509096989192	1	1	0.276072199922055	0.4302249864574759	1	0
14	3	2	0.1	0.6	2	0.4716975066359026	1	1	0.3061652998439968	0.4542352731103364	2	0
14	4	2	0.1	0.6	2	0.4951556706435585	1	1	0.3757025999948382	0.4171861585075456	1	0
14	5	2	0.1	0.6	2	0.5062259837941185	1	2	0.2556361998431385	0.4844209210892743	1	1
14	6	2	0.1	0.6	2	0.5346019427263892	1	2	0.3796804999001324	0.4221255416731498	1	1
14	7	2	0.1	0.6	2	0.5612982518133608	1	2	0.2965063001029193	0.5930730160788265	1	1
14	8	2	0.1	0.6	2	0.5257786627842436	1	2	0.3189081996679306	0.564993981245927	1	1
14	9	2	0.1	0.6	2	0.4180137548359365	1	2	0.3525887001305819	0.4579461144022247	1	1
14	10	2	0.1	0.6	2	0.5689204429494106	1	2	0.271157699637115	0.4155049111575055	2	1
14	11	2	0.1	0.6	2	0.581456081955826	1	2	0.2275522998534143	0.511195689206841	1	1
14	12	2	0.1	0.6	2	0.5876726600543654	1	2	0.370234299916774	0.4437331829655278	1	1
14	13	2	0.1	0.6	2	0.5429377895012735	1	2	0.3432412999682128	0.5249707878996791	2	1
14	14	2	0.1	0.6	2	0.4437385551635339	1	2	0.2523151999339461	0.4528315120691375	2	1
14	15	2	0.1	0.6	2	0.4621187480842346	1	2	0.2455826001241803	0.41570219877995	1	1
14	16	2	0.1	0.6	2	0.4910891005457396	1	2	0.3957786001265049	0.4719694905587772	2	1
14	17	2	0.1	0.6	2	0.4237618266948474	1	2	0.3031554999761283	0.5667381641213957	2	1
14	18	2	0.1	0.6	2	0.4218727075358832	1	2	0.3565397001802921	0.4357963517392869	1	1
14	19	2	0.1	0.6	2	0.4730853715064424	1	2	0.4862478999421	0.4486171722760144	2	1
14	20	2	0.1	0.6	2	0.5792888075499805	1	2	0.3291273000650108	0.5106226941631739	1	1
15	1	1	0.5	0.5	1	0.4787329146622952	1	2	0.4378221998922527	0.4895570292496152	2	0
15	2	1	0.5	0.5	1	0.4978036775981446	1	1	0.2357127997092903	0.4584582024572334	1	1
15	3	1	0.5	0.5	1	0.5151176886841377	1	1	0.3281101998873055	0.5325202976857097	1	1
15	4	1	0.5	0.5	1	0.5794488877445023	1	1	0.2978341998532414	0.5048142386648234	2	1
15	5	1	0.5	0.5	1	0.4789393502100984	1	2	0.2766428999602795	0.4836635760143844	1	0
15	6	1	0.5	0.5	1	0.5533235928432195	1	2	0.3478769999928772	0.5643149737942048	1	0
15	7	1	0.5	0.5	1	0.5172328958853096	1	2	0.285298699978739	0.4863753035412739	1	0
15	8	1	0.5	0.5	1	0.5718355727216669	1	2	0.2484706998802722	0.5503837019037094	2	0
15	9	1	0.5	0.5	1	0.5705796504445907	1	1	0.26156340027228	0.4777329108650217	1	1
15	10	1	0.5	0.5	1	0.4689234549386291	1	1	0.3610086003318429	0.4633644287154924	1	1
15	11	1	0.5	0.5	1	0.5319832198925459	1	1	0.3643283001147211	0.4906197763617177	2	1
15	12	1	0.5	0.5	1	0.4111976038511742	1	1	0.3869225000962615	0.560625998220952	1	1
15	13	1	0.5	0.5	1	0.5550810128316213	1	2	0.2979568000882864	0.4979737478508034	2	0
15	14	1	0.5	0.5	1	0.5212248359718189	1	2	0.1424290998838842	0.4727842072645453	1	0
15	15	1	0.5	0.5	1	0.5046199230360282	1	1	0.6343796998262405	0.5592381186560744	2	1
15	16	1	0.5	0.5	1	0.4366812433309946	1	1	0.3313893997110426	0.5093808435446147	2	1
15	17	1	0.5	0.5	1	0.5956122746888131	1	2	0.3651307001709938	0.5122058682693605	1	0
15	18	1	0.5	0.5	1	0.5218881862745991	1	2	0.338188000023365	0.4035934747083919	2	0
15	19	1	0.5	0.5	1	0.4930117919196323	1	2	0.9284017998725176	0.5915614416132789	1	0
15	20	1	0.5	0.5	1	0.5911331218382933	1	2	0.3756108996458352	0.4005971639284837	2	0
16	1	1	0.5	0.5	1	0.4550024365615592	1	1	0.3647238002158701	0.524024518875953	2	1
16	2	1	0.5	0.5	1	0.4534191577583338	1	1	0.3102886001579463	0.4481238463934285	1	1
16	3	1	0.5	0.5	1	0.4836952964524706	1	2	0.2398667000234127	0.4400776229962267	1	0
16	4	1	0.5	0.5	1	0.4604758934781042	1	2	0.4007216999307275	0.5324718184207011	1	0
16	5	1	0.5	0.5	1	0.5491819482910941	1	2	0.2699146997183561	0.5715363135385253	2	0
16	6	1	0.5	0.5	1	0.4147589463672031	1	1	0.2434992003254592	0.4344952189667293	1	1
16	7	1	0.5	0.5	1	0.4102357660204426	1	1	0.369828199967742	0.4877768398509413	1	1
16	8	1	0.5	0.5	1	0.5747386648543363	1	1	0.3649234999902546	0.5659481649021749	1	1
16	9	1	0.5	0.5	1	0.4519613827485477	1	1	0.4707924001850188	0.4175260932199295	1	1
16	10	1	0.5	0.5	1	0.5436934080827243	1	1	0.3948284001089633	0.46410025796201	2	1
16	11	1	0.5	0.5	1	0.5559034256191671	1	1	0.3715979000553489	0.434136500606073	1	1
16	12	1	0.5	0.5	1	0.4292880047786031	1	1	0.3275709999725223	0.4109727503017037	2	1
16	13	1	0.5	0.5	1	0.5978337651768454	1	1	0.263126699719578	0.4336156127350221	2	1
16	14	1	0.5	0.5	1	0.5113024860968453	1	2	0.1999082998372614	0.4852616461478492	2	0
16	15	1	0.5	0.5	1	0.5357773413365144	1	2	0.1583153000101447	0.4155697340160577	2	0
16	16	1	0.5	0.5	1	0.4627556261722761	1	2	0.2431958997622132	0.4357231373279163	1	0
16	17	1	0.5	0.5	1	0.4759578421420592	1	2	0.4559663003310561	0.5387349241601633	1	0
16	18	1	0.5	0.5	1	0.538531689471428	1	2	0.3057463001459837	0.5051817722620801	1	0
16	19	1	0.5	0.5	1	0.5813586839695289	1	2	0.3019404001533985	0.5026657245107127	1	0
16	20	1	0.5	0.5	1	0.437259010443816	1	2	0.3415371002629399	0.5645310729427715	2	0
17	1	2	0.6	0.1	1	0.5855545550352814	1	2	0.298828300088644	0.5668047088002475	1	0
17	2	2	0.6	0.1	1	0.4716514835583761	1	2	0.2960544996894896	0.4379768477975052	1	0
17	3	2	0.6	0.1	1	0.4767839426123572	1	2	0.2938439999707043	0.4638361629478659	2	0
17	4	2	0.6	0.1	1	0.5646230806988884	1	1	0.2686673998832703	0.4907203373946545	2	1
17	5	2	0.6	0.1	1	0.5310672768840222	1	1	0.2721339999698102	0.5042788381900238	2	1
17	6	2	0.6	0.1	1	0.5415670271120092	1	1	0.2284364001825452	0.4548940776649552	2	1
17	7	2	0.6	0.1	1	0.4896732547382422	1	2	0.2474056999199092	0.4232388169333504	2	0
17	8	2	0.6	0.1	1	0.5818757848239586	1	2	0.2924487995915115	0.5563965394450044	2	0
17	9	2	0.6	0.1	1	0.59515628495507	1	2	0.2660511997528374	0.4950497335144631	2	0
17	10	2	0.6	0.1	1	0.5861010816943335	1	1	0.3264399999752641	0.4266225376932259	1	1
17	11	2	0.6	0.1	1	0.4791804956842349	1	1	0.2977614998817444	0.5921056257087551	2	1
17	12	2	0.6	0.1	1	0.4210043611287686	1	1	0.2686756001785398	0.5277915358598926	2	1
17	13	2	0.6	0.1	1	0.4951709617247608	1	2	0.3400451997295022	0.4334432700216081	2	0
17	14	2	0.6	0.1	1	0.5865474290160506	1	1	0.1858160002157092	0.5945534343153385	1	1
17	15	2	0.6	0.1	1	0.4909517761011392	1	2	0.2374447998590767	0.5791453554806705	2	0
17	16	2	0.6	0.1	1	0.5793471342772242	1	1	0.2390417996793985	0.5811700765438825	1	1
17	17	2	0.6	0.1	1	0.5085466933055359	1	1	0.3160517001524568	0.4254999635228452	1	1
17	18	2	0.6	0.1	1	0.4365676872667652	1	1	0.3403452001512051	0.4624442860091719	2	1
17	19	2	0.6	0.1	1	0.4559782628455305	1	1	0.2796510001644492	0.4357999243270563	1	1
17	20	2	0.6	0.1	1	0.5707598702946957	1	1	0.2910646996460855	0.5344018401805729	1	1
18	1	2	0.6	0.1	1	0.592109965806801	1	2	0.5290948003530502	0.4393229510240838	2	0
18	2	2	0.6	0.1	1	0.4961963088876618	1	2	0.2566513000056148	0.4161730980554799	2	0
18	3	2	0.6	0.1	1	0.4863623048677881	1	2	0.661663600243628	0.4408875154126554	2	0
18	4	2	0.6	0.1	1	0.5808695187201207	1	1	0.2891641999594867	0.4630334175874599	2	1
18	5	2	0.6	0.1	1	0.4657609536607083	1	1	0.2620852999389172	0.5156863467648448	2	1
18	6	2	0.6	0.1	1	0.5506601976166273	1	1	0.2625262001529336	0.5031603900147223	1	1
18	7	2	0.6	0.1	1	0.4211951840491734	1	1	0.3097904003225267	0.5103064594046255	1	1
18	8	2	0.6	0.1	1	0.581499751745022	1	1	0.2348162997514009	0.5460677197890709	1	1
18	9	2	0.6	0.1	1	0.5228534646065353	1	1	0.343627099879086	0.5352570592732978	2	1
18	10	2	0.6	0.1	1	0.471511185274691	1	1	0.2756094997748733	0.5929482404144848	1	1
18	11	2	0.6	0.1	1	0.4791137263203685	1	1	0.3834776002913713	0.4276742951040061	1	1
18	12	2	0.6	0.1	1	0.4041394550626225	1	1	0.3217941001057625	0.4645440744394109	1	1
18	13	2	0.6	0.1	1	0.451459703239807	1	1	0.3479351997375488	0.4555564801761491	1	1
18	14	2	0.6	0.1	1	0.4462532305894141	1	1	0.396577499806881	0.4097959931486906	2	1
18	15	2	0.6	0.1	1	0.4923024693343021	1	1	0.2987454002723098	0.4589798012095634	1	1
18	16	2	0.6	0.1	1	0.5725306076783127	1	1	0.3988692001439631	0.4633527229995714	2	1
18	17	2	0.6	0.1	1	0.5856905133807568	1	1	0.2952970000915229	0.4874595826596061	1	1
18	18	2	0.6	0.1	1	0.4458320723803573	1	1	0.3222281001508236	0.5230891849243746	2	1
18	19	2	0.6	0.1	1	0.5755563875445467	1	1	0.4072810998186469	0.5371424573873012	2	1
18	20	2	0.6	0.1	1	0.4031840701504436	1	1	0.2803521999157965	0.4505934372800529	1	1
19	1	1	0.5	0.5	1	0.4559254188597583	1	2	0.5734451999887824	0.4690976141439104	2	0
19	2	1	0.5	0.5	1	0.579716435333944	1	2	0.2445062999613583	0.595243825431975	1	0
19	3	1	0.5	0.5	1	0.5055110391516364	1	2	0.4536350001581013	0.4949363857897812	2	0
19	4	1	0.5	0.5	1	0.5845602197632447	1	1	0.2909987000748515	0.429165857600335	1	1
19	5	1	0.5	0.5	1	0.5452716026377393	1	1	0.3513238001614809	0.5984962463981839	1	1
19	6	1	0.5	0.5	1	0.4653034593624026	1	1	0.3422864996828139	0.5981954028826423	1	1
19	7	1	0.5	0.5	1	0.4514971059658444	1	1	0.3633286003023386	0.5785835746000639	2	1
19	8	1	0.5	0.5	1	0.4861246966826768	1	1	0.1314803999848664	0.4715253945872936	2	1
19	9	1	0.5	0.5	1	0.47465223171323	1	1	0.2275616996921599	0.5866247165737859	1	1
19	10	1	0.5	0.5	1	0.4333347135102618	1	2	0.2969384999014437	0.4750045595958295	1	0
19	11	1	0.5	0.5	1	0.5532678198281061	1	2	0.3123139003291726	0.4424724897504713	2	0
19	12	1	0.5	0.5	1	0.5958669658959289	1	2	0.4978110999800265	0.5465727428661042	2	0
19	13	1	0.5	0.5	1	0.5907211702582863	1	1	0.2873562998138368	0.5429305422707561	1	1
19	14	1	0.5	0.5	1	0.4446731208111824	1	1	0.5370117998681962	0.4403800725857839	2	1
19	15	1	0.5	0.5	1	0.5610816686434543	1	1	0.2435274003073573	0.5713148479566273	2	1
19	16	1	0.5	0.5	1	0.5984978655773145	1	2	0.3761602002196014	0.5234869594802027	1	0
19	17	1	0.5	0.5	1	0.4768719521867695	1	2	0.3864160999655724	0.4872579435660401	2	0
19	18	1	0.5	0.5	1	0.548003735633671	1	2	0.372525000013411	0.5956154762529313	2	0
19	19	1	0.5	0.5	1	0.4581552472664636	1	2	0.4386423998512328	0.501404752780841	2	0
19	20	1	0.5	0.5	1	0.5520151783939999	1	1	0.2605902999639511	0.4047939475746173	2	1
20	1	1	0.5	0.5	1	0.4534183822351632	1	2	0.4047787999734282	0.4109973912468214	1	0
20	2	1	0.5	0.5	1	0.4277789191364798	1	1	0.331099699717015	0.4800734807090983	1	1
20	3	1	0.5	0.5	1	0.4878156530303631	1	2	0.2677076999098063	0.5383751476497962	1	0
20	4	1	0.5	0.5	1	0.4018493713593812	1	1	0.2447627000510693	0.4722275938688727	2	1
20	5	1	0.5	0.5	1	0.5294356527987919	1	2	0.2674751002341509	0.4649116302887795	1	0
20	6	1	0.5	0.5	1	0.4416633953918275	1	2	0.2643475001677871	0.4741253870405622	2	0
20	7	1	0.5	0.5	1	0.4378336075166229	1	2	0.3155274000018835	0.4781746010808156	1	0
20	8	1	0.5	0.5	1	0.4310023115760668	1	2	0.3246957999654114	0.4727069930870461	2	0
20	9	1	0.5	0.5	1	0.4189992358027145	1	2	0.2833238001912832	0.4262760121235996	2	0
20	10	1	0.5	0.5	1	0.4990578128543419	1	1	0.2692721001803875	0.4949600664167437	1	1
20	11	1	0.5	0.5	1	0.4805020623795996	1	1	0.3071196000091732	0.5251285568751558	2	1
20	12	1	0.5	0.5	1	0.566688824542141	1	2	0.2204218995757401	0.5565824328374173	1	0
20	13	1	0.5	0.5	1	0.5087335145694933	1	2	0.2903905003331602	0.5368087989781223	1	0
20	14	1	0.5	0.5	1	0.5298910456785531	1	2	0.2911716001108289	0.4737946117281424	2	0
20	15	1	0.5	0.5	1	0.4074121201084457	1	2	0.3328966000117362	0.5870474268494108	2	0
20	16	1	0.5	0.5	1	0.5836543470993976	1	2	0.3344628000631928	0.5567730821822294	1	0
20	17	1	0.5	0.5	1	0.5625408000962463	1	2	0.2612572000361979	0.5198033153657016	2	0
20	18	1	0.5	0.5	1	0.5769576573517833	1	2	0.2902514999732375	0.5374954042726983	2	0
20	19	1	0.5	0.5	1	0.5472374439585839	1	2	0.2438261001370847	0.4087232015072926	2	0
20	20	1	0.5	0.5	1	0.4029412291746551	1	1	0.3343271003104746	0.4612813137723911	1	1
