blockNum	trialNum	condition	pWin1	pWin2	optimalResponse	preStimulusDelay	responded	response	rt	preFeedbackDelay	outcome	optimal
1	1	2	0.1	0.6	2	0.4747812629115638	1	1	1.220591799996328	0.4713125196180951	2	0
1	2	2	0.1	0.6	2	0.4236987596050581	0	n/a	n/a	n/a	n/a	n/a
1	3	2	0.1	0.6	2	0.5903317979297874	1	2	0.5598845000204165	0.5099868000224929	1	1
1	4	2	0.1	0.6	2	0.5003010410727661	1	1	0.7722939999948721	0.4435934509157163	2	0
1	5	2	0.1	0.6	2	0.4823831628554737	1	2	0.6938656999845989	0.5352604645203893	2	1
1	6	2	0.1	0.6	2	0.5008644980142897	1	1	0.8662850000255276	0.5667444070910146	2	0
1	7	2	0.1	0.6	2	0.5883132863801417	1	1	1.114215399982641	0.5615309804671782	2	0
1	8	2	0.1	0.6	2	0.4925980702315222	1	2	0.5181926999939606	0.5090269688965288	1	1
1	9	2	0.1	0.6	2	0.5789251769924824	1	2	0.4882193999947049	0.5837557487659611	2	1
1	10	2	0.1	0.6	2	0.4156178767330996	1	2	0.8858976000046823	0.4811397221315745	1	1
1	11	2	0.1	0.6	2	0.5852616786691857	1	1	0.5155855999910273	0.4620041652043204	2	0
1	12	2	0.1	0.6	2	0.5203375038946043	1	2	0.2689979000133462	0.4507825314353682	1	1
1	13	2	0.1	0.6	2	0.4000691392497863	1	1	0.3356632000068203	0.5592437750201487	1	0
1	14	2	0.1	0.6	2	0.5688177643941504	1	2	0.3353096999926493	0.4127784012544943	1	1
1	15	2	0.1	0.6	2	0.4173949625672959	1	2	0.52887589999591	0.5530394777372127	2	1
1	16	2	0.1	0.6	2	0.5809380810750587	1	2	0.5527261000243016	0.5824801342448213	1	1
1	17	2	0.1	0.6	2	0.4717939074774296	1	1	0.4205506999860518	0.4269698214917451	2	0
1	18	2	0.1	0.6	2	0.5299111739206191	1	2	0.5204245000204537	0.4230902151098099	2	1
1	19	2	0.1	0.6	2	0.5097556390976394	1	2	0.4461223999969661	0.4768527753648728	2	1
1	20	2	0.1	0.6	2	0.4863235462060462	1	2	0.9513777999964077	0.4534287119499379	1	1
2	1	2	0.6	0.1	1	0.4968024035034009	1	1	0.6508311000070535	0.4673858751262346	1	1
2	2	2	0.6	0.1	1	0.4717537788341075	1	1	0.4919611999939661	0.4299433373858673	1	1
2	3	2	0.6	0.1	1	0.4316211209559835	1	2	0.5536888999922667	0.4961251759413684	2	0
2	4	2	0.6	0.1	1	0.4379484857363264	1	1	0.5066361000062898	0.4340390568444665	1	1
2	5	2	0.6	0.1	1	0.5071036123599159	1	2	0.8762262999953236	0.5170359948169804	2	0
2	6	2	0.6	0.1	1	0.5408709365735368	1	2	0.6573227999906521	0.5250971283869006	2	0
2	7	2	0.6	0.1	1	0.5256723808799502	1	1	0.2305613000062294	0.5855074998481459	1	1
2	8	2	0.6	0.1	1	0.5481904528787186	1	1	0.4958191000041552	0.5044192541079556	1	1
2	9	2	0.6	0.1	1	0.5758845507646906	1	1	0.4856315999932121	0.5164325206578837	1	1
2	10	2	0.6	0.1	1	0.4196468508515178	1	1	0.6349360999884084	0.5548016791440301	1	1
2	11	2	0.6	0.1	1	0.5230758525482323	1	1	0.4714362999948207	0.4159616184402234	1	1
2	12	2	0.6	0.1	1	0.5607411808152049	1	1	0.2431820000056177	0.5111053711061975	1	1
2	13	2	0.6	0.1	1	0.4978347041300143	1	1	0.4542150000052061	0.4512468011245249	2	1
2	14	2	0.6	0.1	1	0.5211892521670384	1	2	0.4182804999873042	0.5222612375249918	2	0
2	15	2	0.6	0.1	1	0.4255279481943026	1	1	0.3737429000029806	0.5423720666386639	1	1
2	16	2	0.6	0.1	1	0.5193392081747104	1	1	0.4480396999861114	0.4007702833107322	2	1
2	17	2	0.6	0.1	1	0.4526789841448041	1	2	0.9733241000212729	0.4017143175083767	2	0
2	18	2	0.6	0.1	1	0.5341845561113518	1	1	0.2901399999973364	0.518329058112819	1	1
2	19	2	0.6	0.1	1	0.5578526948970599	1	1	0.8604431000130717	0.5305287207659206	1	1
2	20	2	0.6	0.1	1	0.4984544467714829	1	2	0.375721100019291	0.5125438218960841	2	0
3	1	1	0.5	0.5	1	0.4075155169189	1	2	0.9053878000122495	0.4050188832416875	1	0
3	2	1	0.5	0.5	1	0.4863074170286694	1	2	0.4946980999957304	0.5549740433153357	2	0
3	3	1	0.5	0.5	1	0.5024294991357947	1	1	0.6330358999839518	0.5303537544858214	2	1
3	4	1	0.5	0.5	1	0.5246754839462222	1	2	0.4581613999907859	0.467152584223019	1	0
3	5	1	0.5	0.5	1	0.4709173016653129	1	2	1.194689700001618	0.425942106799958	1	0
3	6	1	0.5	0.5	1	0.5501388282912552	1	2	0.8768458999984432	0.5134086396269322	2	0
3	7	1	0.5	0.5	1	0.4274853590932567	1	1	1.60968879997381	0.5555861796857223	2	1
3	8	1	0.5	0.5	1	0.5417457978439666	1	2	1.556996200000867	0.4216455896536517	2	0
3	9	1	0.5	0.5	1	0.5051104847520188	1	2	0.9057326999900397	0.5881303596700699	1	0
3	10	1	0.5	0.5	1	0.4787298030901407	1	2	0.9145471999945585	0.5133185411219614	2	0
3	11	1	0.5	0.5	1	0.5016583550883227	1	2	1.983746299985796	0.4903941616174725	1	0
3	12	1	0.5	0.5	1	0.565967694349109	1	1	0.543783999979496	0.583501340535596	1	1
3	13	1	0.5	0.5	1	0.4202031615587736	1	2	1.216919099999359	0.476985447355322	2	0
3	14	1	0.5	0.5	1	0.4706237692129725	1	1	0.977531699987594	0.5612056968620084	2	1
3	15	1	0.5	0.5	1	0.5309575670014726	1	1	0.5062769999785814	0.570424033291522	2	1
3	16	1	0.5	0.5	1	0.5555515292177096	1	2	0.3151322999910917	0.5763971621947087	2	0
3	17	1	0.5	0.5	1	0.4848349193735113	1	2	0.2373460999806412	0.4626547781766974	1	0
3	18	1	0.5	0.5	1	0.5590043430117877	1	2	0.3808736999926623	0.4728489539705181	1	0
3	19	1	0.5	0.5	1	0.4062387784477859	1	2	0.8242512999859173	0.5488516276463281	2	0
3	20	1	0.5	0.5	1	0.5084878847934036	1	1	1.153442200011341	0.5437324601292671	1	1
4	1	1	0.5	0.5	1	0.5707340124172038	1	2	1.571859200019389	0.4861023971469012	2	0
4	2	1	0.5	0.5	1	0.5620424639840476	1	1	0.5947610000148416	0.4898690984290942	1	1
4	3	1	0.5	0.5	1	0.4473022120087669	1	1	0.2789579999807756	0.4755226569747866	1	1
4	4	1	0.5	0.5	1	0.4023737319176505	1	2	0.351638299995102	0.4325016727785606	1	0
4	5	1	0.5	0.5	1	0.5127700224883425	1	1	0.6144250999786891	0.4509918879039436	1	1
4	6	1	0.5	0.5	1	0.4610437318722587	1	1	0.3655786000017542	0.4587103564372724	2	1
4	7	1	0.5	0.5	1	0.5855889870531975	1	1	1.335282900021411	0.5791950603350382	1	1
4	8	1	0.5	0.5	1	0.4218298164690856	1	2	0.7950874000089243	0.589596411461262	1	0
4	9	1	0.5	0.5	1	0.5188530561955795	1	1	0.5252192000043578	0.5491865976129462	1	1
4	10	1	0.5	0.5	1	0.5080283224370513	1	1	0.4316953000088688	0.5305778985862141	1	1
4	11	1	0.5	0.5	1	0.4762746707575523	1	2	0.5288769000035245	0.5662714918616754	2	0
4	12	1	0.5	0.5	1	0.43176988031353	1	1	0.2676979999814648	0.5125174739244633	2	1
4	13	1	0.5	0.5	1	0.4184544567559333	1	1	0.0004062000080011785	0.4170895919872507	2	1
4	14	1	0.5	0.5	1	0.4916963161940328	1	2	1.229330400004983	0.5288635706239472	1	0
4	15	1	0.5	0.5	1	0.4366447108361022	1	2	0.609246100008022	0.5495880717402087	2	0
4	16	1	0.5	0.5	1	0.4458291983876012	1	1	1.587408299994422	0.5582167128102382	1	1
4	17	1	0.5	0.5	1	0.4174618383418205	1	1	1.302787299995543	0.4420348737567865	1	1
4	18	1	0.5	0.5	1	0.4163026819491064	1	1	1.468232299986994	0.4761563992273292	1	1
4	19	1	0.5	0.5	1	0.405763342832803	1	2	0.42433149999124	0.5056981109336619	2	0
4	20	1	0.5	0.5	1	0.5600935753474148	1	1	0.7919802000105847	0.4823386528543362	2	1
5	1	2	0.6	0.1	1	0.5939951223906479	1	2	1.786183299991535	0.5284238307568321	2	0
5	2	2	0.6	0.1	1	0.537436687509025	1	1	0.3246636999829207	0.5770023098610786	1	1
5	3	2	0.6	0.1	1	0.5851892758782092	1	1	1.402651700016577	0.5174949497842944	2	1
5	4	2	0.6	0.1	1	0.4716996095606152	0	n/a	n/a	n/a	n/a	n/a
5	5	2	0.6	0.1	1	0.4722748957037771	1	2	0.6657272999873385	0.453821693711874	2	0
5	6	2	0.6	0.1	1	0.5406770257052586	1	2	0.5485572000034153	0.4555456414441018	2	0
5	7	2	0.6	0.1	1	0.5243681610835533	1	2	0.9091270999924745	0.4270268595850414	2	0
5	8	2	0.6	0.1	1	0.5042556128269291	1	1	0.3887608000077307	0.4011666051989884	1	1
5	9	2	0.6	0.1	1	0.4389827846791881	1	1	0.8391657000174746	0.5620725024657885	1	1
5	10	2	0.6	0.1	1	0.5856218823567926	1	1	0.491530800005421	0.4590734030459626	2	1
5	11	2	0.6	0.1	1	0.5557039835789168	1	1	0.676355000003241	0.5601596795155747	1	1
5	12	2	0.6	0.1	1	0.4549496857148797	1	2	0.4926977999857627	0.4718288319398911	2	0
5	13	2	0.6	0.1	1	0.4158075210374879	1	1	0.2629462000040803	0.5732357430241286	1	1
5	14	2	0.6	0.1	1	0.5770935995020627	1	1	0.4898145000042859	0.5082601893253342	2	1
5	15	2	0.6	0.1	1	0.4143008717619595	1	1	1.980640199995833	0.5324562664646029	1	1
5	16	2	0.6	0.1	1	0.4435732606886883	1	1	1.279111200012267	0.565030516921104	1	1
5	17	2	0.6	0.1	1	0.4400600958288931	1	1	1.016452499985462	0.4609046047866572	1	1
5	18	2	0.6	0.1	1	0.4147454266787342	0	n/a	n/a	n/a	n/a	n/a
5	19	2	0.6	0.1	1	0.434481367072562	1	1	0.5302565000019968	0.4331449155684572	1	1
5	20	2	0.6	0.1	1	0.4918105555020951	1	1	0.4551430999999866	0.4774360183072442	2	1
6	1	1	0.5	0.5	1	0.4616586123066321	1	1	0.9997785000014119	0.4541341584429895	1	1
6	2	1	0.5	0.5	1	0.4613631710225325	1	1	0.8232694999896921	0.502807976054935	1	1
6	3	1	0.5	0.5	1	0.5990998562138747	1	1	0.5254701999947429	0.5678022078965386	1	1
6	4	1	0.5	0.5	1	0.5078561800595975	1	2	0.4956114999949932	0.5800819998534804	2	0
6	5	1	0.5	0.5	1	0.5759614396192867	1	1	0.644720900018001	0.4727033108987442	1	1
6	6	1	0.5	0.5	1	0.5139612813268517	1	1	0.871849299990572	0.5568775989414937	2	1
6	7	1	0.5	0.5	1	0.5620873939032348	1	1	1.305612099997234	0.599042496856788	1	1
6	8	1	0.5	0.5	1	0.4497797459970876	1	1	0.5819803000194952	0.4475896211457144	1	1
6	9	1	0.5	0.5	1	0.59561485254332	1	2	0.4374206000065897	0.4798937414513603	2	0
6	10	1	0.5	0.5	1	0.4331949042485992	1	1	0.4946880000061356	0.4564570151181511	1	1
6	11	1	0.5	0.5	1	0.4162538072310393	1	1	1.56600520000211	0.5266646731252207	2	1
6	12	1	0.5	0.5	1	0.5719497513145451	1	1	1.120288399979472	0.4084157864713964	1	1
6	13	1	0.5	0.5	1	0.4350681072462471	1	1	0.8736733999976423	0.579484131495822	1	1
6	14	1	0.5	0.5	1	0.4797485084471014	1	1	0.8075226999935694	0.5663650418384966	2	1
6	15	1	0.5	0.5	1	0.5860307427769118	1	1	1.24806080001872	0.4033682381443279	2	1
6	16	1	0.5	0.5	1	0.4361123714170895	1	2	1.018826000014087	0.5929864329167722	2	0
6	17	1	0.5	0.5	1	0.545164005156493	1	1	0.329837299999781	0.4591372030226131	1	1
6	18	1	0.5	0.5	1	0.5057301678821412	1	1	1.009432999999262	0.4845196928318939	2	1
6	19	1	0.5	0.5	1	0.4898046956134335	1	1	0.7675040000176523	0.561568634388973	1	1
6	20	1	0.5	0.5	1	0.518342863982246	1	1	0.9456344999780413	0.4130881847793395	1	1
7	1	2	0.1	0.6	2	0.5873042308884653	1	1	1.377511500002583	0.4868600867700573	2	0
7	2	2	0.1	0.6	2	0.513819690694859	1	2	0.5854939999990165	0.5684707794186913	1	1
7	3	2	0.1	0.6	2	0.4354750009961932	1	2	1.046065599977737	0.5685878545536667	1	1
7	4	2	0.1	0.6	2	0.4289502188271324	1	2	0.8310321000171825	0.5871337394033518	1	1
7	5	2	0.1	0.6	2	0.491168649411232	1	1	1.083606000000145	0.4866367320081886	2	0
7	6	2	0.1	0.6	2	0.4425002608863229	1	2	0.8695039000012912	0.5997967891305809	2	1
7	7	2	0.1	0.6	2	0.4476721642226936	1	2	0.6369365000282414	0.4054391458945119	1	1
7	8	2	0.1	0.6	2	0.4931408725602796	1	2	0.8193822000175714	0.5925774925862783	1	1
7	9	2	0.1	0.6	2	0.4222606889238361	0	n/a	n/a	n/a	n/a	n/a
7	10	2	0.1	0.6	2	0.5923204184493791	1	2	0.31512820001808	0.4684584211652606	1	1
7	11	2	0.1	0.6	2	0.5174543163898878	1	2	0.2818685999955051	0.5743116117928935	1	1
7	12	2	0.1	0.6	2	0.5319565151821051	1	1	0.9054925000236835	0.4815354068642667	2	0
7	13	2	0.1	0.6	2	0.4469901655849641	1	2	0.2286948999972083	0.5667926623981246	2	1
7	14	2	0.1	0.6	2	0.5105298322897083	1	2	0.6570944999984931	0.5229303553523605	1	1
7	15	2	0.1	0.6	2	0.4061791395205979	1	2	0.5014176999975462	0.453599372109366	2	1
7	16	2	0.1	0.6	2	0.4615185006808885	1	2	0.6689652999921236	0.5018563590170855	1	1
7	17	2	0.1	0.6	2	0.422943888608078	1	2	0.7079342000070028	0.5694628658416543	1	1
7	18	2	0.1	0.6	2	0.4159904071605974	1	1	0.6682230999867897	0.4345468761751669	2	0
7	19	2	0.1	0.6	2	0.4642341839776422	1	2	1.009094900015043	0.5982635820383501	2	1
7	20	2	0.1	0.6	2	0.5902027878743337	1	2	1.008116699988022	0.5821231073750437	1	1
8	1	1	0.5	0.5	1	0.4248189031488405	1	1	0.8688318000058644	0.5515029134315182	1	1
8	2	1	0.5	0.5	1	0.5954187636122734	1	1	0.6533597999950871	0.5928469716299657	1	1
8	3	1	0.5	0.5	1	0.5513376939608602	1	1	0.8290635999874212	0.5623049250880287	2	1
8	4	1	0.5	0.5	1	0.4544873505209207	1	1	0.949071900016861	0.5853864996411251	2	1
8	5	1	0.5	0.5	1	0.5667258917480011	0	n/a	n/a	n/a	n/a	n/a
8	6	1	0.5	0.5	1	0.5490254730440123	1	2	0.3207721000071615	0.4594954767826898	1	0
8	7	1	0.5	0.5	1	0.5108728355573008	1	2	0.9234827000182122	0.5584533354686778	2	0
8	8	1	0.5	0.5	1	0.5197986325649799	1	1	1.252930199989351	0.4551423982673838	1	1
8	9	1	0.5	0.5	1	0.553569609106896	1	1	0.8517669000138994	0.5198470254794232	1	1
8	10	1	0.5	0.5	1	0.5477970117618907	1	1	0.7577769000199623	0.4092997519820968	2	1
8	11	1	0.5	0.5	1	0.4564504563745203	1	2	0.5402665000001434	0.5538045085793842	1	0
8	12	1	0.5	0.5	1	0.5613577052373062	1	2	0.8782885999826249	0.5478400959088725	1	0
8	13	1	0.5	0.5	1	0.4164998019798219	1	1	0.9952169999887701	0.5720488728524216	1	1
8	14	1	0.5	0.5	1	0.4491690140893564	1	1	0.5813025000097696	0.4510556143561683	2	1
8	15	1	0.5	0.5	1	0.5142341333720459	1	2	0.8066929999913555	0.4131813723118246	1	0
8	16	1	0.5	0.5	1	0.4207446258831231	1	2	0.5226376999926288	0.4365565915434061	1	0
8	17	1	0.5	0.5	1	0.5703656301172521	1	2	1.187294000003021	0.5949598571374759	1	0
8	18	1	0.5	0.5	1	0.5232336709391247	1	2	0.8386310000205413	0.4743959699963998	2	0
8	19	1	0.5	0.5	1	0.5820779220319324	1	1	0.5547256999998353	0.4543587393117728	2	1
8	20	1	0.5	0.5	1	0.4061796495090466	1	2	0.4763346999825444	0.4692719108888777	1	0
9	1	2	0.1	0.6	2	0.4683246836517495	1	1	1.49576980000711	0.5280077430550297	2	0
9	2	2	0.1	0.6	2	0.4504539091960309	1	2	0.583657300012419	0.4695978628594975	1	1
9	3	2	0.1	0.6	2	0.4936202216283767	1	2	0.2799171000078786	0.5558174005068932	2	1
9	4	2	0.1	0.6	2	0.4479550664419514	1	2	1.342178599996259	0.5985939579347127	1	1
9	5	2	0.1	0.6	2	0.5782730101916619	1	1	0.9629318999941461	0.5515987802474575	2	0
9	6	2	0.1	0.6	2	0.4521858955885146	1	2	0.934950700000627	0.4902469572082638	1	1
9	7	2	0.1	0.6	2	0.5520256663877288	1	1	1.659501599991927	0.4475810863047947	2	0
9	8	2	0.1	0.6	2	0.4261669905573536	1	2	1.748245700000552	0.4839987967221976	1	1
9	9	2	0.1	0.6	2	0.4935691914042424	1	2	1.356812199985143	0.4952954946232762	2	1
9	10	2	0.1	0.6	2	0.5544413671869841	1	2	1.013110900006723	0.483427138220143	1	1
9	11	2	0.1	0.6	2	0.4596954339308507	1	2	0.9125222000002395	0.4769169530830565	1	1
9	12	2	0.1	0.6	2	0.4202816216280173	1	1	1.260051599994767	0.4808150136187511	2	0
9	13	2	0.1	0.6	2	0.5034130809287956	1	1	0.7778680000046734	0.4333841024582672	2	0
9	14	2	0.1	0.6	2	0.4357972280161948	1	2	0.5449213999963831	0.5219755724434574	1	1
9	15	2	0.1	0.6	2	0.4586734100440603	1	2	1.236821099999361	0.4942429037663146	2	1
9	16	2	0.1	0.6	2	0.5267062768426553	1	2	1.038287600007607	0.4405583412631733	1	1
9	17	2	0.1	0.6	2	0.5170194126751558	1	2	1.089592500007711	0.5480689015307494	1	1
9	18	2	0.1	0.6	2	0.4323916316358038	1	2	1.648787000012817	0.5630321624501331	1	1
9	19	2	0.1	0.6	2	0.4047088981325489	1	2	1.334109799994621	0.4261706512957774	1	1
9	20	2	0.1	0.6	2	0.5051348222878478	1	2	1.251706800016109	0.5503754622835533	1	1
10	1	1	0.5	0.5	1	0.5782422592079863	1	1	1.181637999980012	0.465811372019501	1	1
10	2	1	0.5	0.5	1	0.5327818523643859	1	1	0.9496281999745406	0.4336281863063356	2	1
10	3	1	0.5	0.5	1	0.4553432633741024	1	1	1.864787500002421	0.5343314251131397	2	1
10	4	1	0.5	0.5	1	0.456174088181914	1	2	0.926530199998524	0.4861466676577793	1	0
10	5	1	0.5	0.5	1	0.4882000052629045	1	2	1.068129099992802	0.5300071837596656	1	0
10	6	1	0.5	0.5	1	0.4525674276296052	0	n/a	n/a	n/a	n/a	n/a
10	7	1	0.5	0.5	1	0.4097916460226659	1	1	0.4981167000078131	0.4376133567963836	2	1
10	8	1	0.5	0.5	1	0.5472972545333221	1	2	0.4572635999938939	0.4907925039778605	1	0
10	9	1	0.5	0.5	1	0.4004356018599821	1	2	0.3609526000218466	0.4444234690204975	1	0
10	10	1	0.5	0.5	1	0.4847207635210894	1	2	0.5753488999907859	0.5148337085908208	1	0
10	11	1	0.5	0.5	1	0.5183497789070162	1	1	1.025340399995912	0.4763279000369898	2	1
10	12	1	0.5	0.5	1	0.5989300989610045	1	1	0.4629904000030365	0.5174805373570021	1	1
10	13	1	0.5	0.5	1	0.4602969587653821	1	2	0.8348135999985971	0.5949336923479517	1	0
10	14	1	0.5	0.5	1	0.4394300301747215	1	2	0.9681876999966335	0.5221827691662004	1	0
10	15	1	0.5	0.5	1	0.4618635410982921	1	2	1.06607949998579	0.4898773108147023	2	0
10	16	1	0.5	0.5	1	0.5988977429566351	1	2	1.132663199998206	0.4708010316655197	1	0
10	17	1	0.5	0.5	1	0.4817267929127774	1	2	1.292798800015589	0.5440474708920434	2	0
10	18	1	0.5	0.5	1	0.4398350711409473	1	1	1.271843900001841	0.5931526674727549	1	1
10	19	1	0.5	0.5	1	0.5380824026253692	1	1	1.172204799979227	0.469532278777632	1	1
10	20	1	0.5	0.5	1	0.5946692907754911	1	1	1.461039299989352	0.4576504140220743	2	1
11	1	2	0.1	0.6	2	0.4369404777293172	1	2	1.660538899974199	0.5299980112830829	1	1
11	2	2	0.1	0.6	2	0.4686441495129079	1	1	1.001751499978127	0.4308412917756286	2	0
11	3	2	0.1	0.6	2	0.5740529415615532	1	2	0.731900399987353	0.5162968220530074	1	1
11	4	2	0.1	0.6	2	0.4669744124236622	1	2	1.199240000016289	0.5175409131421367	1	1
11	5	2	0.1	0.6	2	0.4496690832997543	1	2	1.278941299999133	0.4446135565590623	2	1
11	6	2	0.1	0.6	2	0.4270819495018386	0	n/a	n/a	n/a	n/a	n/a
11	7	2	0.1	0.6	2	0.455979171623988	1	1	0.2745754000206944	0.4479664259438143	2	0
11	8	2	0.1	0.6	2	0.5313210933381889	1	2	0.4875942000071518	0.4841880961241602	2	1
11	9	2	0.1	0.6	2	0.5762056179498123	1	2	1.106994000001578	0.4657044676009288	2	1
11	10	2	0.1	0.6	2	0.4797014737359516	1	1	0.7500543000060134	0.5275037600793792	2	0
11	11	2	0.1	0.6	2	0.5210569172718598	1	1	0.4794676000019535	0.4754206725405579	2	0
11	12	2	0.1	0.6	2	0.5287241969494553	1	2	0.7746022999926936	0.539767643263843	2	1
11	13	2	0.1	0.6	2	0.5829422351590775	1	1	0.6272746000031475	0.5727118902856926	2	0
11	14	2	0.1	0.6	2	0.5995826942775867	1	1	1.602383299992653	0.4698698973954376	2	0
11	15	2	0.1	0.6	2	0.4817609847061599	1	1	1.34050930000376	0.55583784253841	2	0
11	16	2	0.1	0.6	2	0.5668564924777995	0	n/a	n/a	n/a	n/a	n/a
11	17	2	0.1	0.6	2	0.4213560255450586	1	1	0.267157700000098	0.4018475942522531	2	0
11	18	2	0.1	0.6	2	0.5409616655944451	1	2	1.081691200000932	0.5084809377144643	1	1
11	19	2	0.1	0.6	2	0.532490313837373	1	2	1.315048999997089	0.5029786439438743	1	1
11	20	2	0.1	0.6	2	0.5714570533586253	1	2	1.604034499992849	0.5959296708021611	1	1
12	1	1	0.5	0.5	1	0.4973451777433493	0	n/a	n/a	n/a	n/a	n/a
12	2	1	0.5	0.5	1	0.5572588895008395	1	1	0.9253788000205532	0.4487620002791862	1	1
12	3	1	0.5	0.5	1	0.4845439336915901	1	1	0.9347946000052616	0.4515047012770864	2	1
12	4	1	0.5	0.5	1	0.5125379010731104	1	2	0.9178031000192277	0.5631453599715457	1	0
12	5	1	0.5	0.5	1	0.5684322074462401	1	2	0.5620458000048529	0.4336117006149008	1	0
12	6	1	0.5	0.5	1	0.5187515885147209	1	2	1.287024399993243	0.4925098703019451	1	0
12	7	1	0.5	0.5	1	0.5601431313825633	1	2	1.178272299992386	0.553408056647587	2	0
12	8	1	0.5	0.5	1	0.5905851868976073	1	1	1.077315999980783	0.4872695972135572	1	1
12	9	1	0.5	0.5	1	0.5458320225038344	1	2	1.16046259997529	0.5375262994974979	1	0
12	10	1	0.5	0.5	1	0.4578795822967054	1	2	1.100701599993045	0.4548371503996638	1	0
12	11	1	0.5	0.5	1	0.5497403318629067	1	2	1.071755000011763	0.5935465233455818	1	0
12	12	1	0.5	0.5	1	0.4528382257709971	1	2	1.588775199983502	0.5579983065656995	2	0
12	13	1	0.5	0.5	1	0.4531897034902964	1	2	1.303404999984195	0.4976329644251726	1	0
12	14	1	0.5	0.5	1	0.4023345177823232	1	2	0.7335271000047214	0.5362935719931741	1	0
12	15	1	0.5	0.5	1	0.433626565913273	1	1	0.633161999983713	0.5338102951699921	1	1
12	16	1	0.5	0.5	1	0.5252142190198633	1	2	0.8914827999833506	0.4103071173697115	2	0
12	17	1	0.5	0.5	1	0.5450433223386286	1	2	0.6223896000010427	0.515750817775845	2	0
12	18	1	0.5	0.5	1	0.4282569427360919	1	1	1.061305699986406	0.5349896137723035	2	1
12	19	1	0.5	0.5	1	0.5615085248607671	1	2	1.601370699994732	0.5525198250125126	1	0
12	20	1	0.5	0.5	1	0.4251898781287996	1	2	1.458700299990596	0.4320902883873695	2	0
13	1	2	0.6	0.1	1	0.5742651861760708	1	2	0.9803157999995165	0.4994332001438711	1	0
13	2	2	0.6	0.1	1	0.4409997785648322	1	1	0.68130550000933	0.5291936382691105	2	1
13	3	2	0.6	0.1	1	0.5941411252944702	1	2	0.3221607000159565	0.5980687324848064	2	0
13	4	2	0.6	0.1	1	0.5787865965576788	1	2	1.429754300013883	0.434411723896963	2	0
13	5	2	0.6	0.1	1	0.4188185591718952	1	1	0.9886512999946717	0.4614088210248052	2	1
13	6	2	0.6	0.1	1	0.536873159380427	1	1	0.3690405999950599	0.5176029940070195	1	1
13	7	2	0.6	0.1	1	0.4320034969747361	1	1	0.9714574000099674	0.4875711389263492	1	1
13	8	2	0.6	0.1	1	0.4775884488847489	1	1	1.068580699997256	0.4124582571039999	1	1
13	9	2	0.6	0.1	1	0.4636233512072384	1	2	1.589621599996462	0.5305064439162863	2	0
13	10	2	0.6	0.1	1	0.5595566656692763	1	1	0.8700187999929767	0.5585671094500656	1	1
13	11	2	0.6	0.1	1	0.410915564060643	1	2	1.218770700012101	0.4458601870764701	2	0
13	12	2	0.6	0.1	1	0.4017735757023875	1	1	0.8737049000046682	0.5951683777504198	2	1
13	13	2	0.6	0.1	1	0.5470974181548841	1	1	1.08023150000372	0.5266923065494129	2	1
13	14	2	0.6	0.1	1	0.5809990813105779	1	2	1.659356599993771	0.5962985190949786	2	0
13	15	2	0.6	0.1	1	0.5464493141431492	1	1	0.5142028999980539	0.5709836549446863	2	1
13	16	2	0.6	0.1	1	0.4450458877914011	1	2	0.7083290999871679	0.4509018340797706	2	0
13	17	2	0.6	0.1	1	0.5414408306265138	1	1	1.983468399994308	0.4065034315927621	2	1
13	18	2	0.6	0.1	1	0.4556791752582688	1	1	1.885504000005312	0.5935363100512348	1	1
13	19	2	0.6	0.1	1	0.451066696172142	1	1	1.940336400002707	0.4902686302799515	1	1
13	20	2	0.6	0.1	1	0.5626756451779855	1	1	1.772663999989163	0.5906743724167942	2	1
14	1	1	0.5	0.5	1	0.5007964511514003	1	1	1.344259500008775	0.5470438286871052	2	1
14	2	1	0.5	0.5	1	0.5491151326398146	1	2	0.6239251999941189	0.5351984201716361	1	0
14	3	1	0.5	0.5	1	0.4368237158127525	1	2	1.147842399979709	0.458901670146711	1	0
14	4	1	0.5	0.5	1	0.4821103323828377	1	1	1.66958440002054	0.5869648859410876	1	1
14	5	1	0.5	0.5	1	0.5723964429208422	1	2	1.550764000014169	0.4235230683272725	2	0
14	6	1	0.5	0.5	1	0.5281204435307004	1	1	1.113745199982077	0.5446619939218061	1	1
14	7	1	0.5	0.5	1	0.4378771447432399	1	1	1.429539600008866	0.5565109851742258	1	1
14	8	1	0.5	0.5	1	0.5213147500668626	1	2	1.932623100001365	0.413414324924037	2	0
14	9	1	0.5	0.5	1	0.5212931906189679	1	2	1.545402600022499	0.5446150823846978	2	0
14	10	1	0.5	0.5	1	0.5237432081346229	1	1	1.418780200008769	0.5063953535927077	2	1
14	11	1	0.5	0.5	1	0.4360833893924095	0	n/a	n/a	n/a	n/a	n/a
14	12	1	0.5	0.5	1	0.5108283259042115	1	1	0.2873907999892253	0.4736567858029144	1	1
14	13	1	0.5	0.5	1	0.5048104003883149	1	1	1.202737899991916	0.4770476687802702	1	1
14	14	1	0.5	0.5	1	0.5927724665342907	1	2	1.088839800009737	0.5771182269109332	1	0
14	15	1	0.5	0.5	1	0.4542211402086985	1	1	1.022254599985899	0.4953725222563135	2	1
14	16	1	0.5	0.5	1	0.4073594294464573	1	1	1.031128900009207	0.5923861718898387	1	1
14	17	1	0.5	0.5	1	0.4242158374377391	1	1	1.360598200000823	0.4438292912300677	1	1
14	18	1	0.5	0.5	1	0.4269367744752355	1	1	1.199304300011136	0.449897562681831	1	1
14	19	1	0.5	0.5	1	0.4139855147709971	1	1	1.0421578999958	0.4382472888612646	1	1
14	20	1	0.5	0.5	1	0.4960952864217015	1	1	1.161950800014893	0.5491150098626687	2	1
15	1	2	0.1	0.6	2	0.4538179014180143	1	2	0.7688061999797355	0.5905177975035655	2	1
15	2	2	0.1	0.6	2	0.4800353792103305	1	1	0.3143577000009827	0.4654331881122213	2	0
15	3	2	0.1	0.6	2	0.4756940458571031	1	2	1.464928400004283	0.5281006048719152	1	1
15	4	2	0.1	0.6	2	0.5056326297860346	1	2	1.031008599995403	0.4727077002912281	1	1
15	5	2	0.1	0.6	2	0.4614221460820617	1	2	1.123086999985389	0.5737757900697679	1	1
15	6	2	0.1	0.6	2	0.588213008168873	1	2	0.8900855999963824	0.4762442353615448	1	1
15	7	2	0.1	0.6	2	0.4061468663910098	1	2	1.513782900001388	0.5737451048147925	2	1
15	8	2	0.1	0.6	2	0.4882486918989652	1	2	0.9783545999962371	0.4870171575470167	1	1
15	9	2	0.1	0.6	2	0.5491041933985272	1	2	1.111153100006049	0.5424408018396649	2	1
15	10	2	0.1	0.6	2	0.4923274682629347	1	1	1.196098100015661	0.5137098877173527	2	0
15	11	2	0.1	0.6	2	0.5420004734085467	1	2	1.507660400005989	0.4984795887416176	1	1
15	12	2	0.1	0.6	2	0.4513473355284648	1	2	1.24139219999779	0.4892390365950033	1	1
15	13	2	0.1	0.6	2	0.5084261304304003	1	2	1.383265699987533	0.4156237692410075	1	1
15	14	2	0.1	0.6	2	0.5682357766404147	1	2	1.41825279998011	0.404353554063548	2	1
15	15	2	0.1	0.6	2	0.4804718937335186	1	1	1.890447899990249	0.4107743267945919	2	0
15	16	2	0.1	0.6	2	0.4908994823462305	1	2	1.965276999981143	0.5877301694008182	2	1
15	17	2	0.1	0.6	2	0.5783971711745663	1	1	1.168532200012123	0.5527715745544566	1	0
15	18	2	0.1	0.6	2	0.4745234043093962	1	1	1.414443199988455	0.4535925690483686	1	0
15	19	2	0.1	0.6	2	0.5520326726709956	1	1	1.516245999984676	0.4931356858621604	2	0
15	20	2	0.1	0.6	2	0.4289489466649029	1	1	1.845249600009993	0.5055142676258935	2	0
16	1	1	0.5	0.5	1	0.4488206666342986	1	1	1.222308000025805	0.544913839425419	1	1
16	2	1	0.5	0.5	1	0.5015761516152587	1	1	1.411496400018223	0.5115963412534232	1	1
16	3	1	0.5	0.5	1	0.453801163733626	1	1	1.363923100027023	0.4729495420301499	2	1
16	4	1	0.5	0.5	1	0.4695728944429222	1	2	0.8760346999915782	0.4546025207511572	1	0
16	5	1	0.5	0.5	1	0.4769440827683391	1	2	1.03513119998388	0.4700342893911112	1	0
16	6	1	0.5	0.5	1	0.5259989814797984	1	2	0.9257347999955527	0.536689948574217	2	0
16	7	1	0.5	0.5	1	0.5172679751020708	1	1	1.060985899996012	0.5187300720534517	2	1
16	8	1	0.5	0.5	1	0.52084900463077	1	2	1.045131199993193	0.5097737258302402	1	0
16	9	1	0.5	0.5	1	0.5068292888412832	1	2	1.125380099983886	0.4067616140340476	1	0
16	10	1	0.5	0.5	1	0.4413210926791588	1	2	1.034300500003155	0.5373030034524332	2	0
16	11	1	0.5	0.5	1	0.5719654282370341	1	1	1.826955600001384	0.5124601767283801	1	1
16	12	1	0.5	0.5	1	0.5443777275123832	1	1	1.011297399993055	0.5782624438217498	1	1
16	13	1	0.5	0.5	1	0.5309513920073687	1	2	1.369121399999131	0.4915993484358947	2	0
16	14	1	0.5	0.5	1	0.4779797383401998	1	1	1.280201899993699	0.4700627280106407	1	1
16	15	1	0.5	0.5	1	0.5443779267150082	1	1	1.338251600012882	0.5282714056201052	1	1
16	16	1	0.5	0.5	1	0.4867351601000922	1	1	1.439561800012598	0.4626220568884134	1	1
16	17	1	0.5	0.5	1	0.4110979625436109	1	1	1.386588499997742	0.5374223603675427	2	1
16	18	1	0.5	0.5	1	0.4925564359060809	1	1	0.8909217999898829	0.5646724630654312	1	1
16	19	1	0.5	0.5	1	0.4291739276981402	1	2	0.9815314000006765	0.4852039659372626	1	0
16	20	1	0.5	0.5	1	0.4793527719623061	1	1	1.122272600012366	0.4402683011905754	2	1
17	1	2	0.6	0.1	1	0.415807377780302	1	2	0.9878978000197094	0.4527789089330866	1	0
17	2	2	0.6	0.1	1	0.5765450160659868	1	2	0.8066619999881368	0.4289039892353937	2	0
17	3	2	0.6	0.1	1	0.4381999350307563	1	1	0.7285717999911867	0.5161151856673891	1	1
17	4	2	0.6	0.1	1	0.5475740488793288	1	1	1.077248799992958	0.433035845151482	2	1
17	5	2	0.6	0.1	1	0.5964633252979102	1	1	1.084456000011414	0.5091271402095769	1	1
17	6	2	0.6	0.1	1	0.566860408373923	1	1	0.7573390000034124	0.4235536514084098	1	1
17	7	2	0.6	0.1	1	0.4096989297051796	1	1	1.222901400004048	0.4522875979559041	1	1
17	8	2	0.6	0.1	1	0.5445562469229323	1	1	1.148688599991146	0.5309972845879525	2	1
17	9	2	0.6	0.1	1	0.5893254852909561	1	2	0.9566981999960262	0.5575438892949891	2	0
17	10	2	0.6	0.1	1	0.4573562337668137	1	1	0.9574858999985736	0.5135143046583677	1	1
17	11	2	0.6	0.1	1	0.4442628092551227	1	1	1.021236800006591	0.5886584766544297	2	1
17	12	2	0.6	0.1	1	0.5578696560792805	1	1	1.243079600011697	0.5958922817765685	2	1
17	13	2	0.6	0.1	1	0.5504867747720008	0	n/a	n/a	n/a	n/a	n/a
17	14	2	0.6	0.1	1	0.5313892857010883	1	2	0.8342167000228073	0.4453923458783559	2	0
17	15	2	0.6	0.1	1	0.5809854906207444	1	1	0.5383486000064295	0.520030014934268	1	1
17	16	2	0.6	0.1	1	0.5799172738106846	1	1	0.917109400004847	0.5883548535090952	2	1
17	17	2	0.6	0.1	1	0.5437829639944329	1	1	0.5158152999938466	0.5304392497354208	1	1
17	18	2	0.6	0.1	1	0.4851525473937023	1	1	1.227242299995851	0.442849694957114	2	1
17	19	2	0.6	0.1	1	0.4692893589012421	1	1	0.84930629999144	0.5932073668992746	2	1
17	20	2	0.6	0.1	1	0.4466848151469055	1	2	1.195897199999308	0.5991508603519349	2	0
18	1	2	0.6	0.1	1	0.4820534770740886	1	1	0.533865200006403	0.5770289564547827	1	1
18	2	2	0.6	0.1	1	0.430563273814431	1	1	0.440593400009675	0.5873126823436541	2	1
18	3	2	0.6	0.1	1	0.4984271145468316	1	2	0.4505687000055332	0.5138066980530027	2	0
18	4	2	0.6	0.1	1	0.4284452408404397	1	1	0.5099584000126924	0.5697096823947141	1	1
18	5	2	0.6	0.1	1	0.555087667339962	1	1	0.4372662000241689	0.447451413574156	2	1
18	6	2	0.6	0.1	1	0.5891758019708592	1	2	1.573608000006061	0.465075163322979	2	0
18	7	2	0.6	0.1	1	0.4925748036029927	1	1	0.9508970000024419	0.4024567211743025	1	1
18	8	2	0.6	0.1	1	0.5799487126842362	1	1	0.9489070000126958	0.4691806910106441	1	1
18	9	2	0.6	0.1	1	0.4583789323494419	1	1	1.125408499996411	0.4539875338647261	1	1
18	10	2	0.6	0.1	1	0.4267417941490577	1	1	1.13022490000003	0.5494883852560464	1	1
18	11	2	0.6	0.1	1	0.4594052299179718	1	2	0.9904512999928556	0.5517775838795838	2	0
18	12	2	0.6	0.1	1	0.5600707422692867	1	1	0.8370320000103675	0.410464131470698	1	1
18	13	2	0.6	0.1	1	0.5479830700637736	1	1	1.198490799986757	0.5120903708722833	1	1
18	14	2	0.6	0.1	1	0.4756501699953123	1	1	0.7386259000049904	0.4879335023453368	1	1
18	15	2	0.6	0.1	1	0.5981523092162945	1	1	1.1242541000247	0.4551875738565452	1	1
18	16	2	0.6	0.1	1	0.405761200864442	1	1	1.127204600023106	0.5876434931758936	1	1
18	17	2	0.6	0.1	1	0.4523937933918642	1	2	1.553806200012332	0.5459812747402688	2	0
18	18	2	0.6	0.1	1	0.5189964195123145	1	1	0.480357799999183	0.4768605180878016	2	1
18	19	2	0.6	0.1	1	0.5952377616369221	1	1	0.4844133000005968	0.5767737774088517	2	1
18	20	2	0.6	0.1	1	0.4816203859897978	1	2	0.5604106000100728	0.5970503910986866	2	0
19	1	1	0.5	0.5	1	0.4731928043048341	1	1	0.7836828999861609	0.5191591628084408	1	1
19	2	1	0.5	0.5	1	0.4126702057228837	1	1	1.699579900014214	0.5807364247761333	2	1
19	3	1	0.5	0.5	1	0.5947348176530385	1	1	1.574421400000574	0.5399025395099765	2	1
19	4	1	0.5	0.5	1	0.5530422218974462	1	2	1.428837899991777	0.4883477999431497	1	0
19	5	1	0.5	0.5	1	0.5084298942501363	1	2	0.7020285000035074	0.4038420711658952	2	0
19	6	1	0.5	0.5	1	0.5413058499616713	1	1	1.712735399982193	0.4765123662199768	2	1
19	7	1	0.5	0.5	1	0.5137714048047342	1	2	0.6040991999907419	0.4943873839152345	2	0
19	8	1	0.5	0.5	1	0.4532819189918299	1	2	0.4458985000092071	0.4941432439656974	2	0
19	9	1	0.5	0.5	1	0.4524785291887989	1	1	0.3578787000151351	0.4183583553284431	1	1
19	10	1	0.5	0.5	1	0.522397763582208	1	1	0.7907927000196651	0.5862078114287217	2	1
19	11	1	0.5	0.5	1	0.4252471332595771	1	2	0.3777983000036329	0.5375727636755059	1	0
19	12	1	0.5	0.5	1	0.4573829972228628	1	2	1.171622199995909	0.5999197352916257	1	0
19	13	1	0.5	0.5	1	0.5974525285123798	1	2	1.064680800016504	0.4468819577062414	2	0
19	14	1	0.5	0.5	1	0.5445182216782996	1	1	0.5430565999995451	0.4003283467804703	2	1
19	15	1	0.5	0.5	1	0.4424368550652267	1	1	0.7050242000259459	0.5374233851053019	2	1
19	16	1	0.5	0.5	1	0.4181935338339724	1	2	0.5606479000125546	0.4532818381649578	1	0
19	17	1	0.5	0.5	1	0.4716928367021209	1	2	1.336183300008997	0.4535812809169414	1	0
19	18	1	0.5	0.5	1	0.4043517513952719	1	2	1.393193099997006	0.5846071245200025	1	0
19	19	1	0.5	0.5	1	0.4561112434481631	1	2	0.6510785999998916	0.5016204294686524	2	0
19	20	1	0.5	0.5	1	0.4346944177712676	1	1	1.045654000015929	0.4414325315653104	1	1
20	1	1	0.5	0.5	1	0.4325102167651373	1	1	1.041578100004699	0.5581877273763125	1	1
20	2	1	0.5	0.5	1	0.4265117155542659	1	1	0.8282173000043258	0.5984375208385335	1	1
20	3	1	0.5	0.5	1	0.4138727209178488	1	1	0.70160329999635	0.4571329232116673	2	1
20	4	1	0.5	0.5	1	0.4748655934134611	1	1	0.5711017999856267	0.5684959632914712	2	1
20	5	1	0.5	0.5	1	0.5811727050957289	1	2	0.3427573000080884	0.5296748601633698	1	0
20	6	1	0.5	0.5	1	0.4918226764902386	1	2	0.6466385000094306	0.4447472821539539	2	0
20	7	1	0.5	0.5	1	0.5564473279025163	1	1	0.6763027000124566	0.4806340434772421	2	1
20	8	1	0.5	0.5	1	0.5954742708002747	1	1	0.4733931999944616	0.5004731156291543	1	1
20	9	1	0.5	0.5	1	0.4121386646090385	1	1	0.7034458999987692	0.5736273281526875	2	1
20	10	1	0.5	0.5	1	0.4952312576031631	1	1	0.6810189000098035	0.4388772624630564	1	1
20	11	1	0.5	0.5	1	0.5904289174456621	1	2	0.3886841999774333	0.4108990119624281	2	0
20	12	1	0.5	0.5	1	0.5794125687797607	1	2	0.353810499975225	0.5769297534709601	1	0
20	13	1	0.5	0.5	1	0.4173968671720417	1	2	0.8418953999935184	0.5652108984866839	1	0
20	14	1	0.5	0.5	1	0.5335096523850327	1	2	0.7073807000124361	0.542227845016173	2	0
20	15	1	0.5	0.5	1	0.4212489528709216	1	1	0.5955007000011392	0.4701908712890309	1	1
20	16	1	0.5	0.5	1	0.5541251824322598	1	1	0.9708610999805387	0.4329129149910918	1	1
20	17	1	0.5	0.5	1	0.4180855896316659	1	1	1.630958800000371	0.4583600489634194	1	1
20	18	1	0.5	0.5	1	0.5652405904346334	1	1	0.6916418999899179	0.4705803845081793	1	1
20	19	1	0.5	0.5	1	0.5194470313074266	1	1	0.67898779999814	0.4634516085653654	2	1
20	20	1	0.5	0.5	1	0.4581367234915259	1	2	0.9211855999892578	0.4604912390822939	2	0
