blockNum	trialNum	condition	pWin1	pWin2	optimalResponse	preStimulusDelay	responded	response	rt	preFeedbackDelay	outcome	optimal
1	1	2	0.1	0.6	2	0.5547563673306363	1	1	0.5779157001525164	0.5665184760423541	1	0
1	2	2	0.1	0.6	2	0.5078730642114235	1	1	0.2294206998776644	0.4580780951794158	2	0
1	3	2	0.1	0.6	2	0.5878326943492872	1	2	0.7992245999630541	0.5794083562964398	1	1
1	4	2	0.1	0.6	2	0.5534287374280797	1	2	1.119142099982128	0.4080861670461223	2	1
1	5	2	0.1	0.6	2	0.4133979882878105	1	1	0.3126974001061171	0.5520941270793543	2	0
1	6	2	0.1	0.6	2	0.4550630307029668	1	1	0.1549597999546677	0.4103104119255511	2	0
1	7	2	0.1	0.6	2	0.5003716813954876	1	2	0.1748297000303864	0.5382443469601154	1	1
1	8	2	0.1	0.6	2	0.5616602637780692	1	1	0.199276200029999	0.4819800716813185	2	0
1	9	2	0.1	0.6	2	0.4516037589231606	1	2	0.2369514999445528	0.4991668985797442	2	1
1	10	2	0.1	0.6	2	0.5488384878979825	1	2	0.2045140999834985	0.5129406562687426	1	1
1	11	2	0.1	0.6	2	0.4961837877325391	1	1	0.2370084999129176	0.4131134216914025	2	0
1	12	2	0.1	0.6	2	0.5599115239424051	1	1	0.001108699943870306	0.4903394065969898	2	0
1	13	2	0.1	0.6	2	0.5919022132502576	1	2	0.2520884999539703	0.5664685669296703	2	1
1	14	2	0.1	0.6	2	0.407164014715707	1	2	0.2347003999166191	0.5794081344499207	1	1
1	15	2	0.1	0.6	2	0.4563358978230042	1	2	0.2551997001282871	0.4810770429317008	2	1
1	16	2	0.1	0.6	2	0.5368102919099763	1	1	0.501974199898541	0.4531828362355879	2	0
1	17	2	0.1	0.6	2	0.510298481033539	1	1	0.516950000077486	0.4516389466762324	2	0
1	18	2	0.1	0.6	2	0.5312370719841759	1	2	0.4005464999936521	0.426046496041893	1	1
1	19	2	0.1	0.6	2	0.5397744760214438	1	2	0.5475614999886602	0.4334323986931482	2	1
1	20	2	0.1	0.6	2	0.4458040036700935	1	1	0.4865185001399368	0.5419556330627145	2	0
2	1	1	0.5	0.5	1	0.5544959845341637	1	1	0.8565243999473751	0.5088996458536093	2	1
2	2	1	0.5	0.5	1	0.4421223755462441	1	2	0.3139911000616848	0.4747058524088661	2	0
2	3	1	0.5	0.5	1	0.4343424078120254	1	1	0.375274799996987	0.575404675737432	2	1
2	4	1	0.5	0.5	1	0.4322400480470063	1	1	0.4698455999605358	0.4790198584231407	1	1
2	5	1	0.5	0.5	1	0.4591014468470553	1	2	0.3426117999479175	0.4646934278286971	2	0
2	6	1	0.5	0.5	1	0.4476843431511909	1	2	0.2619905001483858	0.4628343314682374	2	0
2	7	1	0.5	0.5	1	0.5235122105348694	1	2	0.3166946000419557	0.4174398258600569	2	0
2	8	1	0.5	0.5	1	0.49619485446065	1	1	0.2187617002055049	0.5294584808684558	1	1
2	9	1	0.5	0.5	1	0.5690748324353053	1	1	0.2254453001078218	0.5220159559004637	2	1
2	10	1	0.5	0.5	1	0.4807704911027841	1	2	0.2205932000651956	0.431420285268074	1	0
2	11	1	0.5	0.5	1	0.4105854925739938	1	1	0.2622552998363972	0.4865107183543868	2	1
2	12	1	0.5	0.5	1	0.5989660679981166	1	2	0.2671022999566048	0.5442293792438344	2	0
2	13	1	0.5	0.5	1	0.4694665012015403	1	2	0.129725500009954	0.5713319669414731	1	0
2	14	1	0.5	0.5	1	0.5914301842635581	1	1	0.2298675000201911	0.4769161426777355	2	1
2	15	1	0.5	0.5	1	0.4201952951512047	1	2	0.3210714999586344	0.4740013387547355	2	0
2	16	1	0.5	0.5	1	0.4645670421605764	1	2	0.3215248000342399	0.5651606115771276	1	0
2	17	1	0.5	0.5	1	0.5576681002420436	1	2	0.2104606998618692	0.4934664934856871	1	0
2	18	1	0.5	0.5	1	0.4689657025284119	1	2	0.1890458001289517	0.4561286938614576	2	0
2	19	1	0.5	0.5	1	0.4742767790573533	1	1	0.288713000016287	0.5767316509960962	2	1
2	20	1	0.5	0.5	1	0.5458043381969627	1	2	0.0003964998759329319	0.4895888174546004	2	0
3	1	2	0.1	0.6	2	0.5732697385623675	1	1	1.162658100016415	0.4067351452218536	2	0
3	2	2	0.1	0.6	2	0.5262201101321162	1	2	0.2729230001568794	0.4974315852518595	2	1
3	3	2	0.1	0.6	2	0.5737520209258367	1	2	0.2629925000946969	0.5633046295160302	1	1
3	4	2	0.1	0.6	2	0.4081425321883116	1	1	0.3269650000147521	0.5882633645627956	2	0
3	5	2	0.1	0.6	2	0.5189329299830689	1	2	0.2204421998467296	0.5872377642975054	1	1
3	6	2	0.1	0.6	2	0.4054914945868122	1	1	0.2531699000392109	0.4366170948036587	2	0
3	7	2	0.1	0.6	2	0.5936622586490405	1	2	0.2055041000712663	0.4648033899309553	1	1
3	8	2	0.1	0.6	2	0.5386318425419125	1	1	0.2592529999092221	0.4816032334689818	1	0
3	9	2	0.1	0.6	2	0.4248495215336047	1	2	0.1377896000631154	0.4498363146000419	1	1
3	10	2	0.1	0.6	2	0.4475632824773993	1	1	0.1703763999976218	0.4377937697620645	2	0
3	11	2	0.1	0.6	2	0.4562698828891514	1	2	0.2578499000519514	0.5400743080776313	1	1
3	12	2	0.1	0.6	2	0.5969659785644004	1	1	0.1595743999350816	0.5365568825341562	2	0
3	13	2	0.1	0.6	2	0.4808371814011972	1	2	0.151405300013721	0.4996211122388689	1	1
3	14	2	0.1	0.6	2	0.5850096327917084	1	2	0.08844420011155307	0.5493600764758495	1	1
3	15	2	0.1	0.6	2	0.4153378605179254	1	2	0.07611409993842244	0.4315079993776514	2	1
3	16	2	0.1	0.6	2	0.4449865074264609	1	1	0.2697197000961751	0.4481188503780389	2	0
3	17	2	0.1	0.6	2	0.5822791407916936	1	2	0.001193200005218387	0.5211047612648638	2	1
3	18	2	0.1	0.6	2	0.5972494487494788	1	2	0.506523999851197	0.4979918239927711	1	1
3	19	2	0.1	0.6	2	0.5728750053740949	1	2	0.21228660014458	0.5004282266933419	1	1
3	20	2	0.1	0.6	2	0.4362056005713818	1	2	0.2256052999291569	0.5826897449598737	1	1
4	1	2	0.6	0.1	1	0.4397858882804532	1	1	0.6325888000428677	0.4565500200268764	2	1
4	2	2	0.6	0.1	1	0.4924281565309287	1	1	0.0003992000129073858	0.459922501392761	1	1
4	3	2	0.6	0.1	1	0.4381905996801845	1	1	0.1692483001388609	0.4096370857958786	1	1
4	4	2	0.6	0.1	1	0.4840788064700823	1	1	0.209024399984628	0.4268574618581134	1	1
4	5	2	0.6	0.1	1	0.5747424436865558	1	1	0.07073880010284483	0.4621991677515151	2	1
4	6	2	0.6	0.1	1	0.4631431686307554	1	2	0.2032570000737906	0.4228940956495767	1	0
4	7	2	0.6	0.1	1	0.4882272263946724	1	1	0.2846830000635237	0.443848103922208	1	1
4	8	2	0.6	0.1	1	0.5504672644821984	1	1	0.368769499938935	0.5697267530098422	2	1
4	9	2	0.6	0.1	1	0.5625358537418312	1	2	0.3193820000160486	0.5175280659498395	2	0
4	10	2	0.6	0.1	1	0.4692188023837833	1	2	0.2230122000910342	0.4915005921251276	2	0
4	11	2	0.6	0.1	1	0.5380458058717432	1	1	0.04914529994130135	0.4482911678666314	2	1
4	12	2	0.6	0.1	1	0.5074742525153153	1	2	0.08501419983804226	0.4901965399582614	2	0
4	13	2	0.6	0.1	1	0.4767801560832358	1	1	0.212088700151071	0.4135246459219168	1	1
4	14	2	0.6	0.1	1	0.49772323683027	1	1	0.06121600000187755	0.520682576209152	2	1
4	15	2	0.6	0.1	1	0.4436902526402932	1	2	0.2749131999444216	0.4201283052103117	2	0
4	16	2	0.6	0.1	1	0.438666116898442	1	2	0.2116229000966996	0.4104225187441342	2	0
4	17	2	0.6	0.1	1	0.5820816538048695	1	1	0.09046249999664724	0.4554346929568041	2	1
4	18	2	0.6	0.1	1	0.5461033746130362	1	1	0.2012332999147475	0.4833496724088883	1	1
4	19	2	0.6	0.1	1	0.4792435234185241	1	1	0.2769357999786735	0.4284822391555439	1	1
4	20	2	0.6	0.1	1	0.5428229061987657	1	1	0.002751000225543976	0.4450788332150077	2	1
5	1	1	0.5	0.5	1	0.5911170537740407	1	1	1.249361000023782	0.4530049218606613	1	1
5	2	1	0.5	0.5	1	0.5770997495037868	1	1	0.3525527999736369	0.5624832389006837	1	1
5	3	1	0.5	0.5	1	0.4721793962672119	1	1	0.5114120000507683	0.5657181651827161	2	1
5	4	1	0.5	0.5	1	0.4527251786019787	1	1	0.4143920000642538	0.5761947941701446	1	1
5	5	1	0.5	0.5	1	0.4088934756293517	1	1	0.2545217999722809	0.5107273281364507	1	1
5	6	1	0.5	0.5	1	0.4771369996368793	1	1	0.2783903998788446	0.4264464436922056	2	1
5	7	1	0.5	0.5	1	0.4611589776741588	1	1	0.2468965000007302	0.4428859130641349	2	1
5	8	1	0.5	0.5	1	0.5908623867161467	1	2	0.04409019998274744	0.4655332296933047	2	0
5	9	1	0.5	0.5	1	0.562696274573417	1	1	0.001108899945393205	0.4048522028581357	1	1
5	10	1	0.5	0.5	1	0.4010654858628511	1	1	0.1834557000547647	0.4318026199210683	1	1
5	11	1	0.5	0.5	1	0.5754052170440666	1	1	0.2246067998930812	0.5705612699609584	2	1
5	12	1	0.5	0.5	1	0.4257913286897546	1	1	0.4575690999627113	0.523044800946888	1	1
5	13	1	0.5	0.5	1	0.5639401143429799	1	1	0.2069140998646617	0.4895278831420125	1	1
5	14	1	0.5	0.5	1	0.558095913027658	1	2	0.1835678999777883	0.4907713790096	1	0
5	15	1	0.5	0.5	1	0.4086942663890513	1	1	0.4702574000693858	0.4214429398599255	2	1
5	16	1	0.5	0.5	1	0.4552921263378323	1	2	0.4342965001706034	0.4457696216357664	1	0
5	17	1	0.5	0.5	1	0.4859071831047339	1	2	0.09029319998808205	0.4141384826367425	2	0
5	18	1	0.5	0.5	1	0.5953551902315531	1	1	0.1740993000566959	0.4538301916164547	1	1
5	19	1	0.5	0.5	1	0.5334815530812921	1	1	0.320886499946937	0.4423808636221214	2	1
5	20	1	0.5	0.5	1	0.4077162797553955	1	2	0.4748362000100315	0.4139168404419267	2	0
6	1	1	0.5	0.5	1	0.5416333498730048	1	1	0.694722400046885	0.4923294638704635	2	1
6	2	1	0.5	0.5	1	0.5866853976818779	1	1	0.2063875000458211	0.4527007536881172	2	1
6	3	1	0.5	0.5	1	0.5936624871734862	1	2	0.07044420018792152	0.5544354078008138	1	0
6	4	1	0.5	0.5	1	0.4101856970743836	1	2	0.2488186000846326	0.449261719614395	2	0
6	5	1	0.5	0.5	1	0.5830756946468112	1	2	0.2260853999760002	0.5745867167876957	2	0
6	6	1	0.5	0.5	1	0.4864569104880309	1	2	0.002314700046554208	0.4849617198645589	1	0
6	7	1	0.5	0.5	1	0.5898389834479301	1	1	0.04120439989492297	0.564929246699292	2	1
6	8	1	0.5	0.5	1	0.4674439681941358	1	1	0.5182796998415142	0.5078441590244638	2	1
6	9	1	0.5	0.5	1	0.5667541806910613	1	2	0.2076455999631435	0.562464122825818	2	0
6	10	1	0.5	0.5	1	0.5834759418597454	1	2	0.06087280018255115	0.5050318576737078	1	0
6	11	1	0.5	0.5	1	0.4123374326122502	1	1	0.0006740998942404985	0.5172033687623301	1	1
6	12	1	0.5	0.5	1	0.5949895824055825	1	1	0.0008275997824966908	0.5020039646609338	2	1
6	13	1	0.5	0.5	1	0.5728341852340953	1	1	0.2490467000752687	0.5750583555110256	2	1
6	14	1	0.5	0.5	1	0.4005733805549446	0	n/a	n/a	n/a	n/a	n/a
6	15	1	0.5	0.5	1	0.5009227344528413	1	1	0.5794797998387367	0.582314732949712	1	1
6	16	1	0.5	0.5	1	0.437635481989999	1	2	0.0003996000159531832	0.5854653638412239	1	0
6	17	1	0.5	0.5	1	0.5095279915021509	1	1	0.000393599970266223	0.5857421052461561	1	1
6	18	1	0.5	0.5	1	0.539246318388434	1	1	0.00166100007481873	0.4186589087319619	2	1
6	19	1	0.5	0.5	1	0.4320576399386962	1	1	0.0003976998850703239	0.5147609843504473	1	1
6	20	1	0.5	0.5	1	0.5559152564585005	1	1	1.02073059999384	0.4396469599977148	2	1
7	1	2	0.1	0.6	2	0.5099576771598879	1	1	0.4938996999990195	0.5758213507169629	2	0
7	2	2	0.1	0.6	2	0.4186558417825161	1	1	0.1932990001514554	0.4355071526843812	2	0
7	3	2	0.1	0.6	2	0.4548705579295279	1	2	0.2398153999820352	0.4649070458204698	1	1
7	4	2	0.1	0.6	2	0.5748640860275968	1	2	0.0773507000412792	0.4416850426483459	2	1
7	5	2	0.1	0.6	2	0.4509774428923068	1	1	0.2445359001867473	0.4983289040151581	2	0
7	6	2	0.1	0.6	2	0.5896137931043073	1	2	0.001529800007119775	0.5771343171839837	2	1
7	7	2	0.1	0.6	2	0.4347530205952862	1	1	0.3672831999137998	0.5129110594883195	2	0
7	8	2	0.1	0.6	2	0.4442771902209954	1	1	0.2102234999183565	0.5839309416052978	2	0
7	9	2	0.1	0.6	2	0.5521736463832648	1	2	0.2696806001476943	0.5165130775767516	1	1
7	10	2	0.1	0.6	2	0.5739612407896896	1	2	0.209553100168705	0.5616224837427353	1	1
7	11	2	0.1	0.6	2	0.4529174036427571	1	2	0.2049924000166357	0.5664102694752962	2	1
7	12	2	0.1	0.6	2	0.4947956412731366	1	1	0.01357199996709824	0.4777094924416433	2	0
7	13	2	0.1	0.6	2	0.4701998908570408	1	2	0.18702910002321	0.4704422019024244	2	1
7	14	2	0.1	0.6	2	0.5377329073819901	1	2	0.328270300058648	0.5777101627593031	1	1
7	15	2	0.1	0.6	2	0.5241393111430304	1	1	1.217048700200394	0.4979908867107596	2	0
7	16	2	0.1	0.6	2	0.4605599711026546	1	1	0.6164102000184357	0.5201750640587033	2	0
7	17	2	0.1	0.6	2	0.4362485696075031	1	1	0.3275931000243872	0.4237847240825945	2	0
7	18	2	0.1	0.6	2	0.4417188861244312	1	1	0.4973208999726921	0.4844021202914923	2	0
7	19	2	0.1	0.6	2	0.4620250576751184	1	2	0.3797014998272061	0.5198451786434314	2	1
7	20	2	0.1	0.6	2	0.4260390391368857	1	1	0.2350363999139518	0.4339534431061955	2	0
8	1	1	0.5	0.5	1	0.4671294492411777	0	n/a	n/a	n/a	n/a	n/a
8	2	1	0.5	0.5	1	0.5285949630388068	1	1	0.4628790998831391	0.5299315622112181	2	1
8	3	1	0.5	0.5	1	0.5176605974951803	1	1	0.0004247000906616449	0.5338168294724279	1	1
8	4	1	0.5	0.5	1	0.4912150553588562	0	n/a	n/a	n/a	n/a	n/a
8	5	1	0.5	0.5	1	0.5932471040800987	1	1	0.2776535998564214	0.4361212479810721	2	1
8	6	1	0.5	0.5	1	0.5202905895254768	0	n/a	n/a	n/a	n/a	n/a
8	7	1	0.5	0.5	1	0.5285822420789065	1	1	0.4846212000120431	0.4954241798242561	1	1
8	8	1	0.5	0.5	1	0.4423945580050641	1	2	0.2836851000320166	0.5035240619151524	2	0
8	9	1	0.5	0.5	1	0.5974272587926103	1	1	0.421998200006783	0.5174872971596427	2	1
8	10	1	0.5	0.5	1	0.4007468074074584	1	1	0.4386807000264525	0.4723518995084481	1	1
8	11	1	0.5	0.5	1	0.4292654549752475	1	1	0.4123231000266969	0.5532377129842465	2	1
8	12	1	0.5	0.5	1	0.5462618464545743	1	2	0.1877631999086589	0.588992724126766	2	0
8	13	1	0.5	0.5	1	0.44680251786147	1	2	0.2375570998992771	0.5777597252009379	2	0
8	14	1	0.5	0.5	1	0.4285012992852581	1	1	0.262115300167352	0.4804156816831442	1	1
8	15	1	0.5	0.5	1	0.4307641240732246	1	1	0.3631412999238819	0.5066143184366028	1	1
8	16	1	0.5	0.5	1	0.4437837322726857	1	1	0.2180865998379886	0.5471255051450322	2	1
8	17	1	0.5	0.5	1	0.526094054072077	1	1	0.2187982997857034	0.4016969268756679	2	1
8	18	1	0.5	0.5	1	0.4167834568951521	1	2	0.2863555001094937	0.5227062920074408	2	0
8	19	1	0.5	0.5	1	0.5066469737776857	1	2	0.3227178000379354	0.4583566842934383	1	0
8	20	1	0.5	0.5	1	0.5571142834273084	1	1	0.2380142000038177	0.4314673790294464	2	1
9	1	2	0.6	0.1	1	0.5022422995983632	1	1	0.7576166999060661	0.5767665014038899	2	1
9	2	2	0.6	0.1	1	0.4412154792662064	1	1	0.3857205999083817	0.4312521808238384	2	1
9	3	2	0.6	0.1	1	0.5902953382171707	1	1	0.4787506000138819	0.4138552418680246	2	1
9	4	2	0.6	0.1	1	0.5933102340334312	1	2	0.000828899908810854	0.5808931347956383	2	0
9	5	2	0.6	0.1	1	0.516748318729358	1	1	0.2361314999870956	0.5856500493711445	1	1
9	6	2	0.6	0.1	1	0.5265958279100563	1	1	0.26477440004237	0.5889120039713969	2	1
9	7	2	0.6	0.1	1	0.5465541460212009	1	1	0.3035736999008805	0.4652405681716471	1	1
9	8	2	0.6	0.1	1	0.5997470312136349	1	1	0.3313435001764446	0.5620283410975291	2	1
9	9	2	0.6	0.1	1	0.4682674706362971	1	1	0.4289502000901848	0.5042951723582058	2	1
9	10	2	0.6	0.1	1	0.5074037363300105	1	2	1.100894400151446	0.4282015164802609	2	0
9	11	2	0.6	0.1	1	0.531324319714557	1	2	0.1941990000195801	0.4306778034721694	2	0
9	12	2	0.6	0.1	1	0.590299682001893	1	1	0.336351300124079	0.4831846467499294	1	1
9	13	2	0.6	0.1	1	0.4907163285948791	1	1	0.8512658001855016	0.4037213347249526	1	1
9	14	2	0.6	0.1	1	0.5629170072681963	1	1	0.2542904999572784	0.4332910145066827	1	1
9	15	2	0.6	0.1	1	0.4590582547556316	1	2	0.4734261999838054	0.5363189970205986	2	0
9	16	2	0.6	0.1	1	0.5448711496121427	1	1	0.4538851999677718	0.4636098968933742	1	1
9	17	2	0.6	0.1	1	0.5108004370816004	1	1	0.4369018999859691	0.4829015209807654	1	1
9	18	2	0.6	0.1	1	0.430266441275677	1	1	0.1674695000983775	0.5618563157563423	1	1
9	19	2	0.6	0.1	1	0.5728506685793887	1	1	0.02017130004242063	0.552825744929505	1	1
9	20	2	0.6	0.1	1	0.5446257506482136	1	1	0.2407337999902666	0.4396519016783212	1	1
10	1	1	0.5	0.5	1	0.5095602073774136	1	1	0.9788483998272568	0.4745623460259116	2	1
10	2	1	0.5	0.5	1	0.5620557350280628	1	1	0.5498937999363989	0.5319055542892298	2	1
10	3	1	0.5	0.5	1	0.5019807448010327	1	2	0.3023789001163095	0.487083864897362	1	0
10	4	1	0.5	0.5	1	0.4188685528392275	1	1	0.596020300174132	0.4533459276263392	2	1
10	5	1	0.5	0.5	1	0.5468302211173356	1	1	1.822207599878311	0.5768268043776023	2	1
10	6	1	0.5	0.5	1	0.4542922853536474	1	1	0.03482279996387661	0.5702639212556175	1	1
10	7	1	0.5	0.5	1	0.5062401106519606	1	1	0.7894273998681456	0.5588098089266893	2	1
10	8	1	0.5	0.5	1	0.5445917525591851	1	1	0.7837062999606133	0.5902969193865814	1	1
10	9	1	0.5	0.5	1	0.471400630001631	1	2	0.4689849999267608	0.4736229911914875	2	0
10	10	1	0.5	0.5	1	0.561844486025353	1	2	0.7075424999929965	0.5973583692807057	2	0
10	11	1	0.5	0.5	1	0.4925952038744639	1	1	0.4577961000613868	0.4679427221817147	1	1
10	12	1	0.5	0.5	1	0.5656793176192872	1	1	0.3193163999821991	0.5565086953275621	2	1
10	13	1	0.5	0.5	1	0.4918583643694933	1	2	0.9407893000170588	0.5581913124467279	2	0
10	14	1	0.5	0.5	1	0.4823102819889871	1	1	0.5316056997980922	0.4944933831369743	2	1
10	15	1	0.5	0.5	1	0.5701460294854753	1	1	0.1994747000280768	0.4391336096905865	2	1
10	16	1	0.5	0.5	1	0.4048695953539757	1	2	0.2697574999183416	0.4436975650517936	1	0
10	17	1	0.5	0.5	1	0.5128856231896022	1	2	0.4107367000542581	0.5923255809859005	2	0
10	18	1	0.5	0.5	1	0.455192541336842	1	1	0.2379226998891681	0.575104415587403	2	1
10	19	1	0.5	0.5	1	0.4918478087298818	1	1	0.347275200067088	0.4630653788756289	2	1
10	20	1	0.5	0.5	1	0.5904599392273302	1	1	0.2567465000320226	0.5753373246332762	1	1
11	1	2	0.6	0.1	1	0.4301027904411716	1	1	1.042750100139529	0.5926565451157448	1	1
11	2	2	0.6	0.1	1	0.4621966171772227	1	1	0.2123998999595642	0.5254312601430143	1	1
11	3	2	0.6	0.1	1	0.4769594403227537	1	1	0.1855983999557793	0.4489689389901002	1	1
11	4	2	0.6	0.1	1	0.523454915469023	1	2	0.1757653001695871	0.4836368222822531	1	0
11	5	2	0.6	0.1	1	0.480662562809629	1	1	0.2143298999872059	0.5527848499284136	2	1
11	6	2	0.6	0.1	1	0.4341978008674429	1	2	0.2314515998587012	0.5876286788763112	2	0
11	7	2	0.6	0.1	1	0.5159752636251143	1	1	0.001097100088372827	0.5606235824534114	1	1
11	8	2	0.6	0.1	1	0.4039892821755207	1	1	0.2613027000334114	0.4893376749072416	2	1
11	9	2	0.6	0.1	1	0.4253284177039322	1	1	0.2122049999888986	0.5827417260881327	1	1
11	10	2	0.6	0.1	1	0.4183486304110453	1	2	0.4564536998514086	0.5850971013121589	2	0
11	11	2	0.6	0.1	1	0.5465086888992327	1	1	0.3185252000112087	0.5334487087156908	2	1
11	12	2	0.6	0.1	1	0.4365934296722273	1	1	0.2791599999181926	0.467275961132147	1	1
11	13	2	0.6	0.1	1	0.4929075060870783	1	1	0.2874656999483705	0.5201826937205906	1	1
11	14	2	0.6	0.1	1	0.5990009855974638	1	1	0.2847273000515997	0.4837039393347858	1	1
11	15	2	0.6	0.1	1	0.4217073079390798	1	1	0.2818708000704646	0.514751250800536	2	1
11	16	2	0.6	0.1	1	0.4991198922353262	1	2	0.3422063000034541	0.5844913262604985	2	0
11	17	2	0.6	0.1	1	0.4512431051359994	1	1	0.3009192000608891	0.442023586608611	1	1
11	18	2	0.6	0.1	1	0.5334639699114205	1	1	0.3007061998359859	0.4633386430721838	2	1
11	19	2	0.6	0.1	1	0.4183919496888058	1	1	0.6764762001112103	0.5350144639369278	2	1
11	20	2	0.6	0.1	1	0.4666781770708328	1	2	0.2267317001242191	0.4344352542738764	2	0
12	1	2	0.1	0.6	2	0.5195221511205287	1	1	1.604934999952093	0.4561106200914932	1	0
12	2	2	0.1	0.6	2	0.5538748941867241	1	1	0.3310372999403626	0.4582460398215129	2	0
12	3	2	0.1	0.6	2	0.4534630613405632	1	1	0.245564800221473	0.4962463755674102	2	0
12	4	2	0.1	0.6	2	0.5443457673552441	1	1	0.3078658001031727	0.5198454635297297	2	0
12	5	2	0.1	0.6	2	0.4676545823961421	1	1	0.2769769001752138	0.4380821716195347	2	0
12	6	2	0.1	0.6	2	0.4922793141436411	1	1	0.2045503000263125	0.5601334500896072	2	0
12	7	2	0.1	0.6	2	0.4282368728497223	1	2	0.2376248000655323	0.5296573711766327	2	1
12	8	2	0.1	0.6	2	0.486643760982388	1	2	0.2253313001710922	0.448364966417837	1	1
12	9	2	0.1	0.6	2	0.4464036697868306	1	2	0.3657772999722511	0.4959730585807565	2	1
12	10	2	0.1	0.6	2	0.5385893616460475	1	1	0.305196899920702	0.4069098736172532	2	0
12	11	2	0.1	0.6	2	0.5619502224202229	1	1	0.2521989999804646	0.5075859212044284	2	0
12	12	2	0.1	0.6	2	0.4082017220888896	1	2	0.2359724000561982	0.4533249300531383	2	1
12	13	2	0.1	0.6	2	0.4340678510944733	1	2	0.001182599924504757	0.5739417985449462	2	1
12	14	2	0.1	0.6	2	0.5510823074067748	1	2	0.1685648998245597	0.5945581032472851	1	1
12	15	2	0.1	0.6	2	0.416786423108263	1	1	0.415886800037697	0.4627639514568724	2	0
12	16	2	0.1	0.6	2	0.5765583203045581	1	1	0.001107699936255813	0.423890959421071	2	0
12	17	2	0.1	0.6	2	0.4273109784492017	1	1	0.503357500070706	0.5423034452300906	2	0
12	18	2	0.1	0.6	2	0.4721720048544381	1	1	0.2790910999756306	0.5803137972342139	2	0
12	19	2	0.1	0.6	2	0.4471622493692349	1	2	0.2326894998550415	0.5851698483014814	1	1
12	20	2	0.1	0.6	2	0.5676361426164449	1	2	0.001760799903422594	0.4405850414100327	1	1
13	1	1	0.5	0.5	1	0.5328089546064414	1	2	1.364729299908504	0.5623516804230162	1	0
13	2	1	0.5	0.5	1	0.5773443797504723	1	2	0.003665100084617734	0.5039390558786858	1	0
13	3	1	0.5	0.5	1	0.4939133970632019	1	2	0.001112499972805381	0.5259333820894826	2	0
13	4	1	0.5	0.5	1	0.424158607755474	1	1	0.0005397999193519354	0.4184230186899342	1	1
13	5	1	0.5	0.5	1	0.4212487668490513	1	1	0.02189520001411438	0.584413818485172	2	1
13	6	1	0.5	0.5	1	0.4245668201482224	1	2	0.2281873000320047	0.5148447746830298	2	0
13	7	1	0.5	0.5	1	0.5617429986999725	1	2	0.2651101001538336	0.4171106665224069	2	0
13	8	1	0.5	0.5	1	0.45268675170634	1	2	0.328806099947542	0.4632497519751437	2	0
13	9	1	0.5	0.5	1	0.4828544193712789	1	2	0.2552056000567973	0.5403154024844368	1	0
13	10	1	0.5	0.5	1	0.4248530357783551	1	2	0.2969816999975592	0.5515511859378706	1	0
13	11	1	0.5	0.5	1	0.4770509229573239	1	2	0.3339605999644846	0.4610679005112461	1	0
13	12	1	0.5	0.5	1	0.5951476733225033	1	2	0.00118059990927577	0.4879571712549244	2	0
13	13	1	0.5	0.5	1	0.4723402478624429	1	2	0.00169220007956028	0.4286164128638619	1	0
13	14	1	0.5	0.5	1	0.5411964340110093	1	2	0.1767120000440627	0.4999361013134248	2	0
13	15	1	0.5	0.5	1	0.5752652116174526	1	1	0.00186870014294982	0.5078527151090581	1	1
13	16	1	0.5	0.5	1	0.4997077831650838	1	1	0.04528119997121394	0.5001310228380528	1	1
13	17	1	0.5	0.5	1	0.5964507586456466	1	1	0.0384170999750495	0.5559358737295578	1	1
13	18	1	0.5	0.5	1	0.4835789875143878	1	1	0.4863843000493944	0.5619511515119964	2	1
13	19	1	0.5	0.5	1	0.5944831274902176	1	1	0.5645300000905991	0.5064926234081004	2	1
13	20	1	0.5	0.5	1	0.5635983088012015	1	1	1.058793399948627	0.5224232117360584	2	1
14	1	1	0.5	0.5	1	0.4561501792420311	1	1	1.014704099856317	0.406715133476551	2	1
14	2	1	0.5	0.5	1	0.4944619342258507	1	1	0.2675373000092804	0.4545293482466473	2	1
14	3	1	0.5	0.5	1	0.5813451061235098	1	1	0.8922361999284476	0.4489200055261336	2	1
14	4	1	0.5	0.5	1	0.5087694204418437	1	2	0.1862894999794662	0.4133761731685097	2	0
14	5	1	0.5	0.5	1	0.4449643099455599	1	2	0.2029749001376331	0.5113129404818852	1	0
14	6	1	0.5	0.5	1	0.4804658835920358	1	2	0.9497942000161856	0.5667653111816696	2	0
14	7	1	0.5	0.5	1	0.4388728942885813	1	2	0.7259368998929858	0.5621108870436102	2	0
14	8	1	0.5	0.5	1	0.5503301623977694	1	1	0.2680460000410676	0.4631604853331315	2	1
14	9	1	0.5	0.5	1	0.5892305431908723	1	1	0.8541345000267029	0.5209558547981038	1	1
14	10	1	0.5	0.5	1	0.445053660046437	1	1	1.298320400062948	0.5887295404518164	2	1
14	11	1	0.5	0.5	1	0.4547803690745268	1	1	1.048647900111973	0.4712953654276859	2	1
14	12	1	0.5	0.5	1	0.4261250242454209	0	n/a	n/a	n/a	n/a	n/a
14	13	1	0.5	0.5	1	0.546994717141146	1	1	0.3688817999791354	0.5952510285372561	1	1
14	14	1	0.5	0.5	1	0.5782985138115851	1	1	0.5702192999888211	0.57207260360195	2	1
14	15	1	0.5	0.5	1	0.5862204327299597	1	1	1.3565226001665	0.5716582189459941	2	1
14	16	1	0.5	0.5	1	0.5609004053188512	1	1	0.5641588000580668	0.4237958152792874	2	1
14	17	1	0.5	0.5	1	0.5077304507153418	1	2	0.4576133999507874	0.5927462673685886	1	0
14	18	1	0.5	0.5	1	0.5859384521345639	1	2	0.4348100998904556	0.4113054032330377	2	0
14	19	1	0.5	0.5	1	0.5101951254671571	1	1	0.433741900138557	0.5790894684489198	2	1
14	20	1	0.5	0.5	1	0.5169705108248809	1	1	0.9538126999977976	0.5434201457485273	1	1
15	1	2	0.6	0.1	1	0.5865975851704797	1	1	0.7866539999376982	0.4434724849160446	1	1
15	2	2	0.6	0.1	1	0.518291661675148	1	1	0.2874014000408351	0.4591301931170291	1	1
15	3	2	0.6	0.1	1	0.4690676885513762	1	1	0.3054206999950111	0.5021186678404751	1	1
15	4	2	0.6	0.1	1	0.5517908003653458	1	1	0.3749776999466121	0.4061721587959439	1	1
15	5	2	0.6	0.1	1	0.5340791544786422	1	1	0.0019465999212116	0.4031855133782511	2	1
15	6	2	0.6	0.1	1	0.5312823070135163	1	2	0.1176591000985354	0.4020116553858586	2	0
15	7	2	0.6	0.1	1	0.5592912093678311	1	2	1.257619400043041	0.560555921313264	2	0
15	8	2	0.6	0.1	1	0.5769097864516861	1	2	0.2615703002084047	0.5991183771353348	2	0
15	9	2	0.6	0.1	1	0.5460255117244843	0	n/a	n/a	n/a	n/a	n/a
15	10	2	0.6	0.1	1	0.4169712965746095	1	2	1.722965599969029	0.4671009040818514	2	0
15	11	2	0.6	0.1	1	0.4140896121930794	1	1	0.3891527999658138	0.5858580616910887	2	1
15	12	2	0.6	0.1	1	0.4791674196300422	1	1	0.5605847002007067	0.5991982685923156	1	1
15	13	2	0.6	0.1	1	0.5010071704924156	1	1	0.2010737999808043	0.5083605778322767	1	1
15	14	2	0.6	0.1	1	0.5134324562689307	1	1	0.2951018000021577	0.464081944919251	2	1
15	15	2	0.6	0.1	1	0.4857202786082451	1	1	0.6083179998677224	0.4716380565607285	2	1
15	16	2	0.6	0.1	1	0.5346089097608269	1	1	0.149508599890396	0.5934882337203091	1	1
15	17	2	0.6	0.1	1	0.4200419079173514	1	1	0.1917187001090497	0.5324582631318088	2	1
15	18	2	0.6	0.1	1	0.489580643141484	1	2	0.1691447000484914	0.4226107600710695	2	0
15	19	2	0.6	0.1	1	0.446537477495397	1	1	0.06806650012731552	0.4737747811283356	1	1
15	20	2	0.6	0.1	1	0.424694607130537	1	1	0.002637799829244614	0.4237775162850158	1	1
16	1	2	0.6	0.1	1	0.4773584333851705	1	1	1.354074200149626	0.4023877283240349	2	1
16	2	2	0.6	0.1	1	0.5335500875353669	1	2	0.001688699936494231	0.4497769867621154	1	0
16	3	2	0.6	0.1	1	0.421928947125	1	1	0.4160152999684215	0.5980903396169416	1	1
16	4	2	0.6	0.1	1	0.5197930757699152	1	1	0.07398839993402362	0.4812689188517456	1	1
16	5	2	0.6	0.1	1	0.4042791573052826	1	1	0.01336940005421638	0.5053318127257196	1	1
16	6	2	0.6	0.1	1	0.5577067962862833	1	1	1.75141409994103	0.4874082211829345	2	1
16	7	2	0.6	0.1	1	0.5286900756220501	1	1	1.020310499938205	0.5501916812661245	2	1
16	8	2	0.6	0.1	1	0.5256285307657671	1	2	0.5418583999853581	0.5958393796534585	1	0
16	9	2	0.6	0.1	1	0.5363620462744048	1	1	0.02468329994007945	0.4677579662573262	2	1
16	10	2	0.6	0.1	1	0.4416393742737025	1	1	0.1987997000105679	0.4802479299673175	1	1
16	11	2	0.6	0.1	1	0.4027652622716544	1	1	0.1890108999796212	0.5131516952149086	1	1
16	12	2	0.6	0.1	1	0.5425477283116533	1	1	0.3517014998942614	0.5470798824539145	1	1
16	13	2	0.6	0.1	1	0.4820910992728848	1	1	0.3263622999656945	0.4085675484085564	1	1
16	14	2	0.6	0.1	1	0.4106475454229747	1	1	0.3060137000866234	0.4284604922943548	1	1
16	15	2	0.6	0.1	1	0.5986930087746695	1	1	0.1846491999458522	0.514973502849714	1	1
16	16	2	0.6	0.1	1	0.5545329087010227	1	1	0.1950056001078337	0.5659812433557008	1	1
16	17	2	0.6	0.1	1	0.5073138345716671	1	1	0.1552607000339776	0.5199231111980467	1	1
16	18	2	0.6	0.1	1	0.5542315814832972	1	2	0.2085833000019193	0.5056587038288143	2	0
16	19	2	0.6	0.1	1	0.5831933017566688	1	1	0.09608300006948411	0.5594832836224868	1	1
16	20	2	0.6	0.1	1	0.4929121091689546	1	1	0.4312813999131322	0.5193835620681471	1	1
17	1	1	0.5	0.5	1	0.5219969264255037	1	1	1.129526800010353	0.461370077909889	2	1
17	2	1	0.5	0.5	1	0.4479417873507958	1	2	0.001263099955394864	0.4764683313836701	2	0
17	3	1	0.5	0.5	1	0.5367298822687845	1	2	0.003548800013959408	0.5043047660014749	2	0
17	4	1	0.5	0.5	1	0.4091061938057078	1	2	0.2064072999637574	0.4932033376467758	1	0
17	5	1	0.5	0.5	1	0.4951748855966089	1	2	0.2411478001158684	0.4587810723595409	1	0
17	6	1	0.5	0.5	1	0.5655219593578118	1	2	0.2193758999928832	0.5639004562253696	1	0
17	7	1	0.5	0.5	1	0.5618526164820855	1	2	0.3182420998346061	0.4788405644365835	2	0
17	8	1	0.5	0.5	1	0.4973995896915242	1	2	0.2838170998729765	0.4745059397328473	1	0
17	9	1	0.5	0.5	1	0.435586017726764	1	2	0.2971459999680519	0.5977153692715544	2	0
17	10	1	0.5	0.5	1	0.4472028398267145	0	n/a	n/a	n/a	n/a	n/a
17	11	1	0.5	0.5	1	0.5616227043948332	1	1	0.4179316000081599	0.4348415287835695	2	1
17	12	1	0.5	0.5	1	0.4373625427044638	1	1	1.004497300134972	0.565355025810178	2	1
17	13	1	0.5	0.5	1	0.5103596483547829	1	1	0.5248535999562591	0.5108585093187868	1	1
17	14	1	0.5	0.5	1	0.4654263936104538	1	1	0.4002118001226336	0.547072972606474	2	1
17	15	1	0.5	0.5	1	0.5548713813269197	1	1	0.2360064999666065	0.502256395047981	2	1
17	16	1	0.5	0.5	1	0.5588695714080641	1	1	0.7400257000699639	0.4358182534580327	1	1
17	17	1	0.5	0.5	1	0.550770568354269	1	1	0.111209399998188	0.5489082314238349	1	1
17	18	1	0.5	0.5	1	0.4596537421178069	1	1	0.2653234999161214	0.4066908054998051	2	1
17	19	1	0.5	0.5	1	0.5134523046406496	1	2	0.2202399000525475	0.493341028897773	1	0
17	20	1	0.5	0.5	1	0.4966867566837836	1	2	0.6448814000468701	0.4211178644363575	1	0
18	1	1	0.5	0.5	1	0.4163610445686641	1	1	1.744749400066212	0.5656502012490645	1	1
18	2	1	0.5	0.5	1	0.5941428089880908	1	1	0.7254059999249876	0.4282031213903276	1	1
18	3	1	0.5	0.5	1	0.4533009302056932	1	2	0.3980538998730481	0.4786319631154159	1	0
18	4	1	0.5	0.5	1	0.4675224871563404	1	2	0.4407215998508036	0.5259256178286744	1	0
18	5	1	0.5	0.5	1	0.488450825149259	1	1	0.4629486000631005	0.5763144057949923	2	1
18	6	1	0.5	0.5	1	0.5478630029576549	1	1	0.3593268000986427	0.5684128802011845	2	1
18	7	1	0.5	0.5	1	0.5487862533252887	1	1	0.5788439000025392	0.4270411657365767	1	1
18	8	1	0.5	0.5	1	0.5420005375720197	1	1	0.4589231999125332	0.4198037645577789	1	1
18	9	1	0.5	0.5	1	0.4756601410059099	1	1	0.4578501000069082	0.444438005467722	2	1
18	10	1	0.5	0.5	1	0.512945131715126	1	1	0.7470271000638604	0.4571567528515627	1	1
18	11	1	0.5	0.5	1	0.5923950557758381	1	1	0.2441006998997182	0.4831131748133847	1	1
18	12	1	0.5	0.5	1	0.4336111484200473	1	1	0.2022692998871207	0.4963707015759835	2	1
18	13	1	0.5	0.5	1	0.5124806169119898	1	2	0.2919928000774235	0.581619227174666	1	0
18	14	1	0.5	0.5	1	0.4863233127285875	1	2	0.1257670999038965	0.4118360031670319	1	0
18	15	1	0.5	0.5	1	0.4207205212120088	1	2	0.227416800102219	0.5810065103844676	1	0
18	16	1	0.5	0.5	1	0.5118492857404313	1	2	0.002242299960926175	0.5425826390718977	2	0
18	17	1	0.5	0.5	1	0.4136322733538184	1	1	0.2658503002021462	0.4120418106150829	1	1
18	18	1	0.5	0.5	1	0.4405470370209804	1	1	0.289444399997592	0.5962619030210593	1	1
18	19	1	0.5	0.5	1	0.4659362193203502	1	1	0.6593659000936896	0.4044936474263748	1	1
18	20	1	0.5	0.5	1	0.5871657536799975	1	1	0.001412599813193083	0.4054004262071663	1	1
19	1	2	0.1	0.6	2	0.5944200101252132	1	1	1.981069500092417	0.4856103821243809	2	0
19	2	2	0.1	0.6	2	0.4864944996459293	1	1	0.2397378999739885	0.5491783618749144	1	0
19	3	2	0.1	0.6	2	0.5330872157972658	1	1	0.2297799000516534	0.4796635086314749	2	0
19	4	2	0.1	0.6	2	0.4262427550710114	1	2	0.3039127001538873	0.5247630337869058	2	1
19	5	2	0.1	0.6	2	0.560345637138572	1	2	0.5217559000011533	0.5755623531501228	1	1
19	6	2	0.1	0.6	2	0.4037786194546084	1	2	0.3207806998398155	0.4745336161758309	1	1
19	7	2	0.1	0.6	2	0.4199679336153153	1	2	0.4665653998963535	0.5585160266492516	2	1
19	8	2	0.1	0.6	2	0.5026956095065765	1	2	0.5906066000461578	0.5378034447221354	1	1
19	9	2	0.1	0.6	2	0.525476805799875	1	1	0.5626993998885155	0.4372025887120196	1	0
19	10	2	0.1	0.6	2	0.4839347332416455	1	1	0.2834327998571098	0.4410676004061667	2	0
19	11	2	0.1	0.6	2	0.4465176967190879	1	1	0.5358393001370132	0.4205108470180789	2	0
19	12	2	0.1	0.6	2	0.5257787333805278	1	1	0.0882107000797987	0.5034668406541348	2	0
19	13	2	0.1	0.6	2	0.4429905090860002	1	2	0.1681895998772234	0.5897739362750281	1	1
19	14	2	0.1	0.6	2	0.4156767039585092	1	2	0.323288599960506	0.5619093826968654	2	1
19	15	2	0.1	0.6	2	0.5656337188090046	1	1	0.2577615999616683	0.4213678025320922	2	0
19	16	2	0.1	0.6	2	0.5845951786409405	1	1	0.1904724000487477	0.5382746730962277	2	0
19	17	2	0.1	0.6	2	0.419487540028033	1	1	0.001944399904459715	0.5676678978841017	2	0
19	18	2	0.1	0.6	2	0.53179846577636	1	1	0.1362858000211418	0.5658055145926182	2	0
19	19	2	0.1	0.6	2	0.4020661716361942	1	2	0.2827810000162572	0.5750856884035692	1	1
19	20	2	0.1	0.6	2	0.4394326508972622	1	2	0.205985999898985	0.5782249327112763	2	1
20	1	1	0.5	0.5	1	0.5254972026080664	1	2	0.9264922998845577	0.5894556362073224	1	0
20	2	1	0.5	0.5	1	0.5903935635660447	1	2	0.1082194000482559	0.4502574426714091	1	0
20	3	1	0.5	0.5	1	0.4930912466630679	1	2	0.2629243000410497	0.5793910894318731	2	0
20	4	1	0.5	0.5	1	0.4554926897002171	1	2	0.2818618000019342	0.5422614610480612	1	0
20	5	1	0.5	0.5	1	0.5998554529966826	1	2	0.4062252999283373	0.4708876100627072	1	0
20	6	1	0.5	0.5	1	0.5012009150948147	1	2	0.3097196000162512	0.5625208309412765	1	0
20	7	1	0.5	0.5	1	0.4836566253301596	1	2	0.04332429985515773	0.4585944239692726	1	0
20	8	1	0.5	0.5	1	0.5129660538275971	1	2	0.2208316000178456	0.543079171646524	2	0
20	9	1	0.5	0.5	1	0.4271062491435679	1	2	0.3626478998921812	0.5889656684894381	1	0
20	10	1	0.5	0.5	1	0.4007189150188278	1	2	0.04686990007758141	0.5642904959069035	2	0
20	11	1	0.5	0.5	1	0.4081711969343576	1	2	0.001634000102058053	0.4274807335685485	1	0
20	12	1	0.5	0.5	1	0.5182420505036618	1	2	0.4551190999336541	0.4070632639558303	1	0
20	13	1	0.5	0.5	1	0.4338102560760776	1	2	0.05564499995671213	0.5540614058455693	2	0
20	14	1	0.5	0.5	1	0.5815661323201879	1	2	0.4421570999547839	0.5539103840713033	1	0
20	15	1	0.5	0.5	1	0.5632149797403341	1	2	0.1709936000406742	0.5129830912877869	1	0
20	16	1	0.5	0.5	1	0.4125797402863428	1	2	0.009728200035169721	0.5623832305318739	1	0
20	17	1	0.5	0.5	1	0.5873950999215459	1	2	0.6271272001322359	0.5532120704000388	1	0
20	18	1	0.5	0.5	1	0.4010220918327743	1	2	0.3138725000899285	0.5033084765648635	2	0
20	19	1	0.5	0.5	1	0.5345917580248144	1	2	0.1808879999443889	0.5263607854171947	1	0
20	20	1	0.5	0.5	1	0.5729754463546084	1	2	0.1074661000166088	0.4851046585222775	1	0
