blockNum	trialNum	condition	pWin1	pWin2	optimalResponse	preStimulusDelay	responded	response	rt	preFeedbackDelay	outcome	optimal
1	1	2	0.6	0.1	1	0.4718202376783978	0	n/a	n/a	n/a	n/a	n/a
1	2	2	0.6	0.1	1	0.4194624232883711	1	1	1.233741700067185	0.5091274557855785	2	1
1	3	2	0.6	0.1	1	0.5527947870112252	1	1	1.480040000053123	0.5420122707965396	2	1
1	4	2	0.6	0.1	1	0.5143304935758573	1	2	1.421386700007133	0.4738180920660957	2	0
1	5	2	0.6	0.1	1	0.4473487301662271	1	2	1.238552000024356	0.4375621325849917	2	0
1	6	2	0.6	0.1	1	0.5654158836945278	1	1	1.133495600079186	0.5695295820855639	2	1
1	7	2	0.6	0.1	1	0.4081364248431179	1	2	1.208553600008599	0.5092845232275596	2	0
1	8	2	0.6	0.1	1	0.5146451003519961	1	2	0.8060800000093877	0.505802385032788	2	0
1	9	2	0.6	0.1	1	0.5073673164230078	1	2	0.9789977999171242	0.5618530091595126	2	0
1	10	2	0.6	0.1	1	0.5478694823835382	1	1	0.9980532999616116	0.5114916303210059	1	1
1	11	2	0.6	0.1	1	0.4335749911565817	1	2	1.402112300042063	0.5644475416755232	2	0
1	12	2	0.6	0.1	1	0.4758621999075493	1	1	1.050054299994372	0.4200049648351864	1	1
1	13	2	0.6	0.1	1	0.4911950661459777	1	1	1.360788299934939	0.5353384541319055	2	1
1	14	2	0.6	0.1	1	0.5193930585815141	1	2	1.280129700084217	0.4354403489375837	2	0
1	15	2	0.6	0.1	1	0.5811937598371566	1	2	0.7670383999357	0.5748389540110734	2	0
1	16	2	0.6	0.1	1	0.5671347854603105	1	2	1.187401000061072	0.4719499519897155	2	0
1	17	2	0.6	0.1	1	0.4012965357129488	1	1	0.5701141000026837	0.4447429495052658	1	1
1	18	2	0.6	0.1	1	0.5055055719049432	1	2	0.8843152000335976	0.547338891063436	2	0
1	19	2	0.6	0.1	1	0.4104608412470305	1	1	0.3199298999970779	0.5364258351254456	2	1
1	20	2	0.6	0.1	1	0.5379682760888811	1	1	0.5727467000251636	0.5986214458982722	1	1
2	1	1	0.5	0.5	1	0.4376419801039295	1	2	0.6898341999622062	0.4446201959608581	2	0
2	2	1	0.5	0.5	1	0.5811267643585292	1	1	1.406753499992192	0.4938705946505126	2	1
2	3	1	0.5	0.5	1	0.5515556583832916	1	2	0.6269842000911012	0.5247468789092067	2	0
2	4	1	0.5	0.5	1	0.4207057170072295	1	2	0.4869208000600338	0.417276396384555	1	0
2	5	1	0.5	0.5	1	0.5517817011103825	1	1	0.5091597000136971	0.4045772488304078	2	1
2	6	1	0.5	0.5	1	0.4479050675261243	1	1	1.680955999996513	0.4273421931309045	2	1
2	7	1	0.5	0.5	1	0.5723839306901808	1	2	0.3301851000869647	0.4688989378797432	1	0
2	8	1	0.5	0.5	1	0.5806548563251747	1	1	0.8393865000689402	0.408473903279041	2	1
2	9	1	0.5	0.5	1	0.5544769978694242	1	2	0.2616417000535876	0.5483926065869658	2	0
2	10	1	0.5	0.5	1	0.5457358381913082	1	2	0.9117346999701113	0.4362544060829581	2	0
2	11	1	0.5	0.5	1	0.585307797468716	1	1	0.6783632999286056	0.4854467123947932	1	1
2	12	1	0.5	0.5	1	0.5250628270517734	1	2	1.07282799994573	0.5369256079802118	2	0
2	13	1	0.5	0.5	1	0.4061024987772971	1	2	1.495140899904072	0.5439032595468912	2	0
2	14	1	0.5	0.5	1	0.4755090352916401	1	1	0.7950520999729633	0.5896187145926851	2	1
2	15	1	0.5	0.5	1	0.530205890050119	1	1	1.260752400034107	0.5892657914104094	2	1
2	16	1	0.5	0.5	1	0.5021509460609619	1	2	0.2588073000079021	0.5631384803760811	1	0
2	17	1	0.5	0.5	1	0.4139235364801395	1	2	1.376912400010042	0.5343879799988086	2	0
2	18	1	0.5	0.5	1	0.588157929341577	1	2	1.128637199988589	0.5772196207443427	2	0
2	19	1	0.5	0.5	1	0.5002999316375063	1	1	0.8302248000400141	0.5332425519262798	2	1
2	20	1	0.5	0.5	1	0.5759700862544466	1	2	0.9962896999204531	0.5405449945997198	2	0
3	1	2	0.6	0.1	1	0.5049318039968198	1	1	1.170394100015983	0.4388279490093017	1	1
3	2	2	0.6	0.1	1	0.5679339311855848	1	2	0.8476517000235617	0.4674261086611519	2	0
3	3	2	0.6	0.1	1	0.4062989522021021	1	2	0.5311887999996543	0.4377732484396425	2	0
3	4	2	0.6	0.1	1	0.4455348060513017	1	2	0.5435988999670371	0.404472181168438	2	0
3	5	2	0.6	0.1	1	0.4349446669586077	1	1	0.2371642999351025	0.5350306815272916	2	1
3	6	2	0.6	0.1	1	0.4259311069547675	1	1	1.973847099929117	0.5843080206029956	1	1
3	7	2	0.6	0.1	1	0.4061885499732776	1	1	1.421590300044045	0.5839905532207281	1	1
3	8	2	0.6	0.1	1	0.4787122064741945	1	1	1.387921800022013	0.4356072484739917	2	1
3	9	2	0.6	0.1	1	0.4292518868092583	1	2	0.2652807999402285	0.5425084112703653	2	0
3	10	2	0.6	0.1	1	0.5467041814818639	1	1	0.2488088000100106	0.4914534417467055	1	1
3	11	2	0.6	0.1	1	0.5024113790278318	1	2	0.5230379001004621	0.5691870400473592	2	0
3	12	2	0.6	0.1	1	0.5307833010618774	1	1	0.5826944999862462	0.4196382438528956	1	1
3	13	2	0.6	0.1	1	0.4956788987108829	1	1	0.986972099984996	0.4759837387005361	2	1
3	14	2	0.6	0.1	1	0.4760847082605286	1	2	0.7037430999334902	0.5910863609365659	2	0
3	15	2	0.6	0.1	1	0.5767390108325818	1	1	0.3595984999556094	0.5160535192681551	2	1
3	16	2	0.6	0.1	1	0.4231685547567277	1	2	1.585738699999638	0.5708529324318359	2	0
3	17	2	0.6	0.1	1	0.4005004489349649	1	1	0.7451853000093251	0.5597750507681951	1	1
3	18	2	0.6	0.1	1	0.4315354458610672	1	1	0.7977302999934182	0.4722232830620962	1	1
3	19	2	0.6	0.1	1	0.59500814792445	1	1	1.085722799994983	0.5256037645300617	1	1
3	20	2	0.6	0.1	1	0.4357702852185151	1	1	0.756843899958767	0.5384406725670804	1	1
4	1	2	0.6	0.1	1	0.5800278812756532	1	2	0.6916888999985531	0.5832765048477522	2	0
4	2	2	0.6	0.1	1	0.5129159385810311	0	n/a	n/a	n/a	n/a	n/a
4	3	2	0.6	0.1	1	0.5090665048965455	1	2	0.4016558999428526	0.5403237310238473	2	0
4	4	2	0.6	0.1	1	0.4739991152202193	1	1	0.3190036000451073	0.4861489411606674	2	1
4	5	2	0.6	0.1	1	0.5232771806599816	1	1	1.492040299926884	0.5143283899589077	2	1
4	6	2	0.6	0.1	1	0.5926347346762358	1	1	0.3079910000087693	0.5979433202715673	1	1
4	7	2	0.6	0.1	1	0.4592241350383964	1	2	0.7195808999240398	0.58692894505889	2	0
4	8	2	0.6	0.1	1	0.4994700505276141	1	2	1.126657800050452	0.4063332463326605	1	0
4	9	2	0.6	0.1	1	0.4450193431974201	1	1	1.017747399979271	0.5886198246820085	1	1
4	10	2	0.6	0.1	1	0.4313497323883837	1	2	0.6479138999711722	0.4304633077683357	2	0
4	11	2	0.6	0.1	1	0.4023537883734793	1	2	0.2682500999653712	0.5729854317150136	2	0
4	12	2	0.6	0.1	1	0.5305976018525946	1	2	1.312542299972847	0.5338404865292737	2	0
4	13	2	0.6	0.1	1	0.5859972614233833	1	1	0.7814327999949455	0.5620412835951524	2	1
4	14	2	0.6	0.1	1	0.534350363946734	1	1	0.8277704000938684	0.4074372440417308	2	1
4	15	2	0.6	0.1	1	0.5553332382573404	1	2	0.636356099974364	0.5025724222074071	2	0
4	16	2	0.6	0.1	1	0.5742412934321341	1	1	0.8970104999607429	0.4983667455434891	2	1
4	17	2	0.6	0.1	1	0.4555894933028286	1	2	0.7566111000487581	0.5493364499385384	2	0
4	18	2	0.6	0.1	1	0.4117647593709685	1	1	1.013464700081386	0.5975966925638345	1	1
4	19	2	0.6	0.1	1	0.5631926373420636	1	2	0.5191612000344321	0.4653764171760513	1	0
4	20	2	0.6	0.1	1	0.4514705175000557	1	2	0.8822256999555975	0.4016345791010224	2	0
5	1	1	0.5	0.5	1	0.4058856129991575	1	1	1.108604699955322	0.4515100737571077	1	1
5	2	1	0.5	0.5	1	0.5858410816396989	1	1	0.9800764999818057	0.5779023173888531	2	1
5	3	1	0.5	0.5	1	0.5224774054205995	1	2	0.7698791000293568	0.4603606093659423	2	0
5	4	1	0.5	0.5	1	0.4861329074427305	1	1	1.221872300026007	0.4611263893642791	1	1
5	5	1	0.5	0.5	1	0.4637507799781607	1	1	0.8403500000713393	0.5885035315582337	2	1
5	6	1	0.5	0.5	1	0.5667768157023949	1	1	0.8996329000219703	0.4300667531054497	1	1
5	7	1	0.5	0.5	1	0.5801831216037697	1	2	1.511330600013025	0.594913474940046	2	0
5	8	1	0.5	0.5	1	0.4027849325078172	1	2	0.3553765000542626	0.5341109038814301	1	0
5	9	1	0.5	0.5	1	0.5184790619155351	1	1	0.5016940999776125	0.5111307419292125	2	1
5	10	1	0.5	0.5	1	0.5398597291996986	1	2	0.5683865000028163	0.5936747603859712	2	0
5	11	1	0.5	0.5	1	0.4434506755597296	1	1	1.122856299974956	0.5178050032512325	2	1
5	12	1	0.5	0.5	1	0.5567742429655987	1	2	0.8095468000974506	0.407032599072437	2	0
5	13	1	0.5	0.5	1	0.5686146487285527	1	2	0.5615567000349984	0.5354659958710126	1	0
5	14	1	0.5	0.5	1	0.5556234742197392	1	2	0.799778199987486	0.4632925066124919	1	0
5	15	1	0.5	0.5	1	0.5788035002064933	1	1	0.441306299995631	0.5177148123967101	1	1
5	16	1	0.5	0.5	1	0.4236141041435384	1	1	0.663668500026688	0.4421402197818636	2	1
5	17	1	0.5	0.5	1	0.5123560370349818	1	1	1.033521300065331	0.4404320044567773	1	1
5	18	1	0.5	0.5	1	0.5540833074505531	1	2	0.7653882999438792	0.538748179812076	1	0
5	19	1	0.5	0.5	1	0.4342182054333059	1	2	0.7931592999957502	0.5247189987679214	2	0
5	20	1	0.5	0.5	1	0.5927946690254704	1	2	0.8466168999439105	0.425251071832743	2	0
6	1	1	0.5	0.5	1	0.4564362895733933	1	1	1.086447500041686	0.5033024895565748	2	1
6	2	1	0.5	0.5	1	0.5585857043643974	1	2	0.8928133000154048	0.470104495249664	2	0
6	3	1	0.5	0.5	1	0.5783045142498475	1	2	0.6570414000889286	0.5523843018114329	2	0
6	4	1	0.5	0.5	1	0.5735784242886001	1	1	1.30381099996157	0.5782475641742024	2	1
6	5	1	0.5	0.5	1	0.5203574343406729	1	2	0.9417506000027061	0.4785421316279748	1	0
6	6	1	0.5	0.5	1	0.5688523513735322	1	2	0.7578509000595659	0.4232103252082939	2	0
6	7	1	0.5	0.5	1	0.436444736478076	1	2	0.4186149999732152	0.5650862665883563	1	0
6	8	1	0.5	0.5	1	0.5038665942182473	1	1	0.7406473000301048	0.4407527591435234	2	1
6	9	1	0.5	0.5	1	0.5304656096639241	1	2	0.9209787999279797	0.4551335297204188	1	0
6	10	1	0.5	0.5	1	0.4009954250020538	1	1	1.208527200040407	0.5166245671680912	2	1
6	11	1	0.5	0.5	1	0.4308275174197155	1	2	1.119123199954629	0.506918652097295	1	0
6	12	1	0.5	0.5	1	0.4666819865158125	1	2	1.584561600000598	0.4654718832904932	2	0
6	13	1	0.5	0.5	1	0.5836411925275597	1	1	0.3740873000351712	0.5152770515132288	2	1
6	14	1	0.5	0.5	1	0.4573819549002577	1	2	0.613896599970758	0.5937288527522324	2	0
6	15	1	0.5	0.5	1	0.5787296553119097	1	1	0.8590400000102818	0.5090217790119944	1	1
6	16	1	0.5	0.5	1	0.5203812396359653	1	2	0.6131290999474004	0.5283952399607388	1	0
6	17	1	0.5	0.5	1	0.4385849134114987	1	1	0.3491266999626532	0.5395899218873172	2	1
6	18	1	0.5	0.5	1	0.4003354468455766	1	2	0.3857354000210762	0.479683484540059	2	0
6	19	1	0.5	0.5	1	0.5626865777814014	1	2	0.5373666000086814	0.4491588890572898	2	0
6	20	1	0.5	0.5	1	0.4256211163650601	1	2	0.5667142000747845	0.402426046320151	2	0
7	1	2	0.6	0.1	1	0.5523888183997399	1	1	0.7359473999822512	0.5513928561488145	2	1
7	2	2	0.6	0.1	1	0.4850649882666134	1	2	0.6484923000680283	0.5436276589964703	2	0
7	3	2	0.6	0.1	1	0.4680839427607445	1	2	1.414192599942908	0.4819744167635017	2	0
7	4	2	0.6	0.1	1	0.5665617418074739	1	1	1.011709999991581	0.5454851716960605	1	1
7	5	2	0.6	0.1	1	0.5464391739266206	1	1	1.230745100066997	0.454563389131964	2	1
7	6	2	0.6	0.1	1	0.5223844091606303	1	2	0.9174438000191003	0.4172710477104841	2	0
7	7	2	0.6	0.1	1	0.4431983539155468	1	2	0.4087240999797359	0.4240563727867803	2	0
7	8	2	0.6	0.1	1	0.5210347126331071	1	2	1.693455000058748	0.4910262196684463	2	0
7	9	2	0.6	0.1	1	0.5266199903391272	1	2	0.3175478000193834	0.5472878489327498	2	0
7	10	2	0.6	0.1	1	0.4090808831773628	1	1	0.395323200034909	0.5238993246778427	2	1
7	11	2	0.6	0.1	1	0.4668078771988753	1	1	1.278144299983978	0.4414577335174106	2	1
7	12	2	0.6	0.1	1	0.5500135039961043	1	2	0.6994706999976188	0.5817945405361753	1	0
7	13	2	0.6	0.1	1	0.502937488136868	1	2	1.59365220007021	0.4039779776277189	2	0
7	14	2	0.6	0.1	1	0.5511546977211679	1	1	0.825509300106205	0.4955464105825133	2	1
7	15	2	0.6	0.1	1	0.5626401396359146	1	2	0.7684583000373095	0.5504877270924348	2	0
7	16	2	0.6	0.1	1	0.588749615334464	1	1	0.6357053000247106	0.5024909889719937	1	1
7	17	2	0.6	0.1	1	0.5050836039962613	1	1	1.376912200008519	0.4652472311814434	1	1
7	18	2	0.6	0.1	1	0.4301545341637579	1	2	1.052536999923177	0.4370694409158894	2	0
7	19	2	0.6	0.1	1	0.5573883729361365	1	1	0.8305990999797359	0.4213855001118901	1	1
7	20	2	0.6	0.1	1	0.4624765894880532	1	2	0.9183902000077069	0.4522663956704752	2	0
8	1	2	0.6	0.1	1	0.5707462966473988	1	2	1.029363899957389	0.5607566444345105	2	0
8	2	2	0.6	0.1	1	0.4321633233132571	1	1	1.355738600017503	0.5793562550314757	2	1
8	3	2	0.6	0.1	1	0.5474562701123558	1	2	0.259961900068447	0.5319417459596718	2	0
8	4	2	0.6	0.1	1	0.4946583578672258	1	2	0.2220169000793248	0.5436937714744822	1	0
8	5	2	0.6	0.1	1	0.4144666740762303	1	1	0.5792204999597743	0.4145301813463226	1	1
8	6	2	0.6	0.1	1	0.5009837263523499	1	2	0.5790742000099272	0.5098714580645218	2	0
8	7	2	0.6	0.1	1	0.4315811238808748	1	2	0.8910248000174761	0.5414086707413682	2	0
8	8	2	0.6	0.1	1	0.514361984776789	1	1	0.6276015000184998	0.4820219834654286	2	1
8	9	2	0.6	0.1	1	0.4639399836253551	0	n/a	n/a	n/a	n/a	n/a
8	10	2	0.6	0.1	1	0.4229788577226184	1	2	0.7607980999164283	0.4188661186196621	2	0
8	11	2	0.6	0.1	1	0.5336541673211048	1	1	1.170464499969967	0.4735573439992476	1	1
8	12	2	0.6	0.1	1	0.534446604571253	1	1	0.5928595999721438	0.4842351097394282	1	1
8	13	2	0.6	0.1	1	0.4646075113623611	1	2	0.480198199977167	0.4508144340483566	2	0
8	14	2	0.6	0.1	1	0.5126493010019717	1	2	0.7619643999496475	0.5814852821771754	2	0
8	15	2	0.6	0.1	1	0.5198595490474316	1	2	0.5501030999002978	0.5557873326502724	2	0
8	16	2	0.6	0.1	1	0.5566976557473036	1	1	0.2822138000046834	0.4170641593530721	1	1
8	17	2	0.6	0.1	1	0.5891579394764617	1	1	0.722628999967128	0.5976515757108338	1	1
8	18	2	0.6	0.1	1	0.5052650515024431	1	1	0.688007100019604	0.5497519896141585	2	1
8	19	2	0.6	0.1	1	0.4670682486666433	1	1	0.3681337999878451	0.424285989137748	1	1
8	20	2	0.6	0.1	1	0.4178489728138729	1	1	0.7554093999788165	0.4651421178127619	1	1
9	1	1	0.5	0.5	1	0.5148954986074831	1	2	0.708608299959451	0.5301254275356134	2	0
9	2	1	0.5	0.5	1	0.554450314399211	1	2	0.5094405999407172	0.5572322343559846	2	0
9	3	1	0.5	0.5	1	0.5469577205199142	1	2	1.152499399962835	0.5654532327400421	1	0
9	4	1	0.5	0.5	1	0.5916465177405855	1	1	0.4026079000905156	0.4622711968438315	2	1
9	5	1	0.5	0.5	1	0.4053587317917663	1	2	0.4766128999181092	0.5486808035976761	1	0
9	6	1	0.5	0.5	1	0.4625808874868378	1	1	0.6772210000781342	0.4172911049477555	2	1
9	7	1	0.5	0.5	1	0.5982808949696352	1	1	0.2427687000017613	0.5489309298925611	2	1
9	8	1	0.5	0.5	1	0.4085496255521091	1	2	0.241413899930194	0.4253846406907977	2	0
9	9	1	0.5	0.5	1	0.4668337783927357	1	2	0.9973749999189749	0.5454719371554079	1	0
9	10	1	0.5	0.5	1	0.512753545224667	1	1	0.7340956999687478	0.5784540317644076	2	1
9	11	1	0.5	0.5	1	0.5784025680361061	1	2	0.3719989999663085	0.4450888921310807	2	0
9	12	1	0.5	0.5	1	0.5225633604829227	1	1	0.8439296999713406	0.5736931942119782	2	1
9	13	1	0.5	0.5	1	0.523793839224679	1	2	0.4644352000905201	0.4918948949151355	1	0
9	14	1	0.5	0.5	1	0.5458367091868144	1	2	0.5876602000789717	0.4763905252387215	2	0
9	15	1	0.5	0.5	1	0.4277923474791465	1	2	0.5382623999612406	0.5825519954995562	2	0
9	16	1	0.5	0.5	1	0.4268757177208416	1	1	0.8332302999915555	0.5133002038410398	2	1
9	17	1	0.5	0.5	1	0.5896506469295069	1	2	0.4446775000542402	0.5720793904459476	1	0
9	18	1	0.5	0.5	1	0.567277430654894	1	1	0.573802899918519	0.5285375263654897	2	1
9	19	1	0.5	0.5	1	0.5128655598306204	1	2	0.5506400000303984	0.5427376194955242	2	0
9	20	1	0.5	0.5	1	0.5382874830937761	1	2	0.4550488999811932	0.5720585931166481	2	0
10	1	1	0.5	0.5	1	0.4567781978713809	1	2	1.0708411000669	0.5826357516360603	2	0
10	2	1	0.5	0.5	1	0.4341225938500721	1	2	0.8579936000751331	0.5832474126027118	2	0
10	3	1	0.5	0.5	1	0.5819200261263948	1	1	0.3300017999717966	0.5227331265904607	1	1
10	4	1	0.5	0.5	1	0.4562928110869063	1	1	1.170791700016707	0.5275098891656254	2	1
10	5	1	0.5	0.5	1	0.4658650588741541	1	2	1.709324199939147	0.4078630075171373	1	0
10	6	1	0.5	0.5	1	0.587681109531775	1	1	1.364741099998355	0.4689114263384238	2	1
10	7	1	0.5	0.5	1	0.5125314264601504	1	2	0.7820667000487447	0.5554523937701483	1	0
10	8	1	0.5	0.5	1	0.5461812061933609	1	2	0.6718430999899283	0.5703450212760434	2	0
10	9	1	0.5	0.5	1	0.5712275387884336	1	1	0.9634160000132397	0.402173255286694	2	1
10	10	1	0.5	0.5	1	0.5210541449821731	1	2	0.9288513000356033	0.5466063657076831	2	0
10	11	1	0.5	0.5	1	0.4390469837899181	1	2	0.5493482999736443	0.4357925132309183	1	0
10	12	1	0.5	0.5	1	0.5291370769644153	1	1	0.6131468999665231	0.4250926617939861	2	1
10	13	1	0.5	0.5	1	0.4275715724527196	1	2	0.3147140999790281	0.5372321371309006	1	0
10	14	1	0.5	0.5	1	0.5645196716130256	1	2	0.4825163999339566	0.550628106816748	2	0
10	15	1	0.5	0.5	1	0.5043136783355969	1	1	0.4614544999785721	0.4833880775182963	1	1
10	16	1	0.5	0.5	1	0.4764542343941675	1	1	0.559196799993515	0.5354749573374119	1	1
10	17	1	0.5	0.5	1	0.5769698057104736	1	1	0.5451041999040172	0.4129126525127308	1	1
10	18	1	0.5	0.5	1	0.5281649848547605	1	2	0.4204380000010133	0.4539796960285702	2	0
10	19	1	0.5	0.5	1	0.4204971986086045	1	1	0.7301561000058427	0.5075718187374884	2	1
10	20	1	0.5	0.5	1	0.4922592425257237	1	2	1.102210700046271	0.5787532534565532	1	0
11	1	2	0.1	0.6	2	0.5852110235163447	1	1	0.5914980999659747	0.4830586249696674	2	0
11	2	2	0.1	0.6	2	0.4990378857393554	1	2	1.213780999998562	0.4601774443654504	1	1
11	3	2	0.1	0.6	2	0.4250756609822219	1	1	0.9865904999896884	0.533148877432193	2	0
11	4	2	0.1	0.6	2	0.5239452110629471	1	2	1.446270999964327	0.5203674140049761	2	1
11	5	2	0.1	0.6	2	0.4957124842743716	1	2	0.978919200017117	0.5334607514750531	2	1
11	6	2	0.1	0.6	2	0.4860503438046877	1	1	0.4835825000191107	0.5711624398668483	2	0
11	7	2	0.1	0.6	2	0.4140709746165119	1	2	0.8461582999443635	0.5573266191971793	1	1
11	8	2	0.1	0.6	2	0.4798462016627653	1	1	0.6479740999639034	0.4634657205377761	2	0
11	9	2	0.1	0.6	2	0.5050830652451356	1	2	0.5941561000654474	0.5658347917078493	1	1
11	10	2	0.1	0.6	2	0.4175390369602427	1	2	0.6020339999813586	0.5806420081432937	1	1
11	11	2	0.1	0.6	2	0.5810985982295047	1	1	0.2895561000332236	0.4197453860073314	1	0
11	12	2	0.1	0.6	2	0.4875661400261874	1	1	0.588948699994944	0.5902178970380416	2	0
11	13	2	0.1	0.6	2	0.5553850785087107	1	1	0.3334447999950498	0.4913424735853015	2	0
11	14	2	0.1	0.6	2	0.4925492482567385	1	2	0.2586837999988347	0.5167515697979748	1	1
11	15	2	0.1	0.6	2	0.4552723856538683	1	2	0.2054023999953642	0.5188306179660274	1	1
11	16	2	0.1	0.6	2	0.4434286338197401	1	1	0.3003427999792621	0.5406267423510567	2	0
11	17	2	0.1	0.6	2	0.454959967450617	1	2	0.1714431999716908	0.4965988945285223	1	1
11	18	2	0.1	0.6	2	0.5341445018966384	1	2	0.1860591999720782	0.4773868717095757	2	1
11	19	2	0.1	0.6	2	0.4702091801751476	1	1	1.239133999915794	0.4027792691900621	2	0
11	20	2	0.1	0.6	2	0.5944534434646584	1	1	0.7550642000278458	0.4197946584351012	2	0
12	1	1	0.5	0.5	1	0.5805314588047568	1	1	0.6683547999709845	0.5614770109066264	2	1
12	2	1	0.5	0.5	1	0.5524456701163177	1	2	0.632741600042209	0.5768014565249038	1	0
12	3	1	0.5	0.5	1	0.4696258497829154	1	2	0.6620451000053436	0.5834748988263165	1	0
12	4	1	0.5	0.5	1	0.4671022566535332	1	1	0.7653846999164671	0.531562195344382	2	1
12	5	1	0.5	0.5	1	0.5374607141970188	1	2	0.2987858999986202	0.5280659817534596	2	0
12	6	1	0.5	0.5	1	0.4707462674699742	1	2	0.8230452999705449	0.4590764019984297	2	0
12	7	1	0.5	0.5	1	0.540429926938176	1	1	0.3663718999596313	0.4718079439042702	2	1
12	8	1	0.5	0.5	1	0.4645632478280165	1	2	1.103488500113599	0.5356885795972381	1	0
12	9	1	0.5	0.5	1	0.4504525128283149	1	1	1.593863600050099	0.4363275384747088	1	1
12	10	1	0.5	0.5	1	0.4322737768809747	1	1	1.628479599952698	0.5919317024042753	2	1
12	11	1	0.5	0.5	1	0.5848820150898328	1	2	1.732885299948975	0.5144402127421468	1	0
12	12	1	0.5	0.5	1	0.490223140078135	1	1	1.199929099995643	0.4943944637219627	2	1
12	13	1	0.5	0.5	1	0.5213020817452778	1	2	1.530691999942064	0.5358947909704904	2	0
12	14	1	0.5	0.5	1	0.5197529301627976	1	2	0.6375213999999687	0.5991663110775649	2	0
12	15	1	0.5	0.5	1	0.4700490821016642	1	1	1.056670099962503	0.4846704548160161	1	1
12	16	1	0.5	0.5	1	0.5058515494827571	1	2	0.9657991999993101	0.5920262645050451	2	0
12	17	1	0.5	0.5	1	0.5409191103075124	1	1	0.6467371000908315	0.4022501917418749	1	1
12	18	1	0.5	0.5	1	0.4954187012023943	1	1	0.696373299928382	0.4510715377012817	2	1
12	19	1	0.5	0.5	1	0.426843129344992	1	1	0.5616645000409335	0.4843297084864134	1	1
12	20	1	0.5	0.5	1	0.4447300975153932	1	2	0.8786145000485703	0.414081348485126	1	0
13	1	2	0.6	0.1	1	0.5362059177001002	1	1	0.6626404999988154	0.5378652418017944	1	1
13	2	2	0.6	0.1	1	0.4359752291547008	1	1	0.9613056000089273	0.4219825179856492	1	1
13	3	2	0.6	0.1	1	0.496252634316324	1	2	0.4752322999993339	0.4801449991026806	2	0
13	4	2	0.6	0.1	1	0.4354970545874988	1	1	0.4970857000444084	0.4004722534217618	1	1
13	5	2	0.6	0.1	1	0.4770580480978526	1	1	0.4262450000969693	0.4133610986728759	1	1
13	6	2	0.6	0.1	1	0.5586073029818208	1	1	0.6002227999269962	0.4393929727756566	1	1
13	7	2	0.6	0.1	1	0.4182666746357577	1	2	0.9957166999811307	0.4344647207068322	2	0
13	8	2	0.6	0.1	1	0.5212452232579933	1	1	0.3980446000350639	0.4255530157778323	2	1
13	9	2	0.6	0.1	1	0.5454155217661466	1	2	0.9218086999608204	0.4945953366974542	2	0
13	10	2	0.6	0.1	1	0.5450129523760315	1	2	0.8559607999632135	0.4972028172609723	2	0
13	11	2	0.6	0.1	1	0.4671870182119551	1	1	0.2611654999200255	0.4367928512941983	2	1
13	12	2	0.6	0.1	1	0.4944475447820422	1	1	0.6162659000838175	0.4334176912235469	1	1
13	13	2	0.6	0.1	1	0.5692828868742499	1	1	0.07249309995677322	0.4717552885873354	2	1
13	14	2	0.6	0.1	1	0.5176726520264843	0	n/a	n/a	n/a	n/a	n/a
13	15	2	0.6	0.1	1	0.5364209247615717	1	2	0.5309165000217035	0.4529669755560128	2	0
13	16	2	0.6	0.1	1	0.5060040030877806	1	1	0.6609432999975979	0.4540425991345423	1	1
13	17	2	0.6	0.1	1	0.5121241572996587	1	1	0.6625029999995604	0.5201445153037743	1	1
13	18	2	0.6	0.1	1	0.5545687768599181	1	1	0.3200968001037836	0.5608453276759813	2	1
13	19	2	0.6	0.1	1	0.5678362104677765	1	2	0.2481666000094265	0.5217448595575092	1	0
13	20	2	0.6	0.1	1	0.4947217451021882	1	1	0.249533399939537	0.5535981373431887	2	1
14	1	1	0.5	0.5	1	0.5916276163320789	1	2	0.79198980005458	0.4959869556075531	2	0
14	2	1	0.5	0.5	1	0.4927920952536761	1	2	0.5462474999949336	0.4169440760770159	2	0
14	3	1	0.5	0.5	1	0.4018779937460619	1	1	0.2932032000971958	0.4110747843549749	2	1
14	4	1	0.5	0.5	1	0.5226365889598166	1	2	0.3168257999932393	0.5976684480496161	1	0
14	5	1	0.5	0.5	1	0.4888303309545655	1	1	0.9945724999997765	0.5324784759595292	2	1
14	6	1	0.5	0.5	1	0.4368219287235051	1	2	0.4358292000833899	0.5360468365862388	1	0
14	7	1	0.5	0.5	1	0.5899536180499716	1	1	0.6654554000124335	0.4045524962146654	2	1
14	8	1	0.5	0.5	1	0.5486948381494259	1	1	0.4642126000253484	0.5951089339406321	1	1
14	9	1	0.5	0.5	1	0.5083697605961222	1	2	1.323960999958217	0.4260502227158555	1	0
14	10	1	0.5	0.5	1	0.5435568951148304	1	1	0.8905289000831544	0.4868454475732578	2	1
14	11	1	0.5	0.5	1	0.4338156058570316	1	1	0.6896453000372276	0.598317376696277	1	1
14	12	1	0.5	0.5	1	0.5424247192581131	1	2	0.3830947000533342	0.4965284257927925	2	0
14	13	1	0.5	0.5	1	0.40155920021553	1	2	0.33040279999841	0.5123260300404114	1	0
14	14	1	0.5	0.5	1	0.4758382796541861	1	1	0.574273300007917	0.4369710926215694	2	1
14	15	1	0.5	0.5	1	0.4150134348238256	1	1	0.2918563999701291	0.4962764530439533	2	1
14	16	1	0.5	0.5	1	0.5863059247036924	1	2	0.5270619000075385	0.4748880394184781	1	0
14	17	1	0.5	0.5	1	0.4741279808897966	1	2	0.4205268999794498	0.4336061677866649	2	0
14	18	1	0.5	0.5	1	0.4286890788413019	1	1	0.368164100102149	0.5740972234902706	1	1
14	19	1	0.5	0.5	1	0.4919982612750211	1	1	0.7756967999739572	0.588809962867977	2	1
14	20	1	0.5	0.5	1	0.4483067223072849	1	2	0.9103737999685109	0.4556146857232337	1	0
15	1	2	0.6	0.1	1	0.4312359805605937	1	1	0.9503462000284344	0.412491679332717	2	1
15	2	2	0.6	0.1	1	0.4388578231050595	1	2	0.295399299939163	0.5924515361012068	2	0
15	3	2	0.6	0.1	1	0.4562103498103582	1	1	0.6212203999748453	0.5442239526073854	2	1
15	4	2	0.6	0.1	1	0.4874410085832694	1	1	0.5512791000073776	0.5693341157642736	2	1
15	5	2	0.6	0.1	1	0.4967835637254112	1	2	0.4537920999573544	0.4203043783718102	2	0
15	6	2	0.6	0.1	1	0.4460807022257625	1	1	1.065224100020714	0.5502048217221549	2	1
15	7	2	0.6	0.1	1	0.5593176101780203	1	2	0.6767795999767259	0.5487143033275147	2	0
15	8	2	0.6	0.1	1	0.5299788325828234	1	2	1.088207800057717	0.4170529425735586	2	0
15	9	2	0.6	0.1	1	0.5514446332865932	1	1	0.7943077000090852	0.5241307466266287	1	1
15	10	2	0.6	0.1	1	0.5425072342315984	1	2	0.5879036000696942	0.4350682673171565	2	0
15	11	2	0.6	0.1	1	0.4849888836680826	1	2	0.4858019000384957	0.5464977061288021	2	0
15	12	2	0.6	0.1	1	0.5578531125572672	1	2	0.2303251000121236	0.4187433674259591	2	0
15	13	2	0.6	0.1	1	0.4316048383395795	1	1	0.002077300101518631	0.4764765332349729	2	1
15	14	2	0.6	0.1	1	0.5305161121165457	1	1	0.5218797000125051	0.4387754094919821	1	1
15	15	2	0.6	0.1	1	0.4327914886358467	1	1	0.3991083999862894	0.5594643850394386	1	1
15	16	2	0.6	0.1	1	0.4195837189007554	1	1	0.533943900023587	0.5985966081835851	1	1
15	17	2	0.6	0.1	1	0.5236349435912475	1	2	0.422036699950695	0.4792791006579252	2	0
15	18	2	0.6	0.1	1	0.4557408882210269	1	2	0.5999851999804378	0.5536859223380364	2	0
15	19	2	0.6	0.1	1	0.5564118466654513	1	1	0.3231777999317273	0.4200170727339335	2	1
15	20	2	0.6	0.1	1	0.5872205740248403	1	2	0.1089318000013009	0.4065285585379945	2	0
16	1	1	0.5	0.5	1	0.4445257607234629	1	2	0.7557334000011906	0.4653084186152817	2	0
16	2	1	0.5	0.5	1	0.4822163740863249	1	1	0.7250463999807835	0.47107624522075	1	1
16	3	1	0.5	0.5	1	0.5784463084538928	1	2	0.8423878999892622	0.5901064891172197	2	0
16	4	1	0.5	0.5	1	0.4224644234274917	1	1	0.6012558999937028	0.415045999649016	2	1
16	5	1	0.5	0.5	1	0.4570544339620967	1	2	0.6524435000028461	0.4512088738869954	2	0
16	6	1	0.5	0.5	1	0.5201578638857512	1	1	0.7422293000854552	0.5153823290361559	2	1
16	7	1	0.5	0.5	1	0.4124030909819848	1	2	0.4990238000173122	0.5498320589771446	1	0
16	8	1	0.5	0.5	1	0.4887046425726123	1	2	0.7188020000467077	0.5102846043310576	1	0
16	9	1	0.5	0.5	1	0.4723171862772227	1	1	0.3778613000176847	0.4998084392109128	1	1
16	10	1	0.5	0.5	1	0.5620132953272109	1	2	1.497525100014172	0.558871595197042	1	0
16	11	1	0.5	0.5	1	0.5482499434812713	1	1	0.6248069000430405	0.5912579808323198	2	1
16	12	1	0.5	0.5	1	0.5858264204009962	1	1	0.7944025000324473	0.4648798941123972	1	1
16	13	1	0.5	0.5	1	0.5996548319719557	1	2	0.7606104000005871	0.4735910936467719	2	0
16	14	1	0.5	0.5	1	0.4355567234984777	1	2	0.3291507000103593	0.5715121484830408	1	0
16	15	1	0.5	0.5	1	0.4126533602403726	1	1	0.7401515999808908	0.4835968017383788	1	1
16	16	1	0.5	0.5	1	0.5195744972178693	1	1	0.9507095000008121	0.4786420478481115	2	1
16	17	1	0.5	0.5	1	0.4137795426624534	1	2	0.3982007000595331	0.5969787695161406	2	0
16	18	1	0.5	0.5	1	0.5496662094628286	1	2	0.2947760000824928	0.5557824409368204	2	0
16	19	1	0.5	0.5	1	0.5844645852476633	1	2	0.5899175999220461	0.5923417008830302	1	0
16	20	1	0.5	0.5	1	0.5375080776409249	1	1	0.8949321999680251	0.4240755226741459	2	1
17	1	2	0.1	0.6	2	0.5844292477969284	1	1	0.7947247000411153	0.5164428312771668	2	0
17	2	2	0.1	0.6	2	0.4943583591478107	1	2	0.7767848999937996	0.536663461352979	2	1
17	3	2	0.1	0.6	2	0.5547642022667216	1	1	0.2461549000581726	0.4339698491675282	2	0
17	4	2	0.1	0.6	2	0.5660886115924149	1	1	0.4616837999783456	0.4196254601522917	2	0
17	5	2	0.1	0.6	2	0.4691204795072947	1	1	0.8414791999384761	0.4891741988458114	2	0
17	6	2	0.1	0.6	2	0.5708106593139688	1	2	0.2551661999896169	0.4129826436835164	1	1
17	7	2	0.1	0.6	2	0.5622549032242486	1	1	0.7897265000501648	0.4273912445895143	1	0
17	8	2	0.1	0.6	2	0.4495626938994618	1	1	0.2897398999193683	0.4035335216206084	2	0
17	9	2	0.1	0.6	2	0.5639559307270792	1	2	0.3125755999935791	0.5960469258695349	1	1
17	10	2	0.1	0.6	2	0.5983810505678272	1	2	0.6860702000558376	0.421970035085011	2	1
17	11	2	0.1	0.6	2	0.4714774553665538	1	1	0.2480083000846207	0.5880182704315993	2	0
17	12	2	0.1	0.6	2	0.4692766373617644	1	2	0.7434231999795884	0.4174745597602731	1	1
17	13	2	0.1	0.6	2	0.4973370310596934	1	1	0.8360823999391869	0.4284348671057683	2	0
17	14	2	0.1	0.6	2	0.5146237304502599	1	2	0.6782168999779969	0.4093948215455793	2	1
17	15	2	0.1	0.6	2	0.4424784010887534	1	2	0.6752192999701947	0.4747750892464886	2	1
17	16	2	0.1	0.6	2	0.4533575616409193	1	2	0.6008568999823183	0.5021843764127292	1	1
17	17	2	0.1	0.6	2	0.5026673062965064	1	1	1.158488899935037	0.5339782370205224	2	0
17	18	2	0.1	0.6	2	0.4105962911933428	1	1	1.201760199968703	0.5571725656300549	2	0
17	19	2	0.1	0.6	2	0.4760670759916677	1	1	0.6453342000022531	0.5513695606617515	2	0
17	20	2	0.1	0.6	2	0.5545025936426756	1	2	0.7790037000086159	0.5212193413128532	1	1
18	1	2	0.6	0.1	1	0.4598287652851677	1	2	0.678892600000836	0.4524932397909726	2	0
18	2	2	0.6	0.1	1	0.5195087190018267	1	2	0.9953104000305757	0.491129977328215	2	0
18	3	2	0.6	0.1	1	0.4460576905424132	1	2	0.8405645000748336	0.4594452199296264	2	0
18	4	2	0.6	0.1	1	0.4137679347452157	1	1	0.4470781000563875	0.5688621409627259	2	1
18	5	2	0.6	0.1	1	0.4181451647953274	1	1	0.6243036999367177	0.5071312294105694	2	1
18	6	2	0.6	0.1	1	0.5657474403976964	1	2	0.7995646999916062	0.5668564779174788	2	0
18	7	2	0.6	0.1	1	0.4279356127905719	1	2	0.3701204999815673	0.5766599681697095	2	0
18	8	2	0.6	0.1	1	0.5249136963194476	1	2	0.7569882998941466	0.4428451576211982	2	0
18	9	2	0.6	0.1	1	0.5404433999050225	1	2	0.3590248000109568	0.525571878745377	2	0
18	10	2	0.6	0.1	1	0.5238132029246277	1	1	0.4179425000911579	0.4226277046817633	2	1
18	11	2	0.6	0.1	1	0.5810459602277978	1	1	0.6357988999225199	0.5544635529758408	1	1
18	12	2	0.6	0.1	1	0.5121636306794517	1	1	0.9092806000262499	0.5007945519740868	1	1
18	13	2	0.6	0.1	1	0.4477106292936556	1	2	0.521301900036633	0.5744215698189018	1	0
18	14	2	0.6	0.1	1	0.4813587856411522	1	1	0.780568299931474	0.4464805837318686	1	1
18	15	2	0.6	0.1	1	0.5484940248423621	1	1	0.8373616000171751	0.5799936986554292	1	1
18	16	2	0.6	0.1	1	0.4508254590106277	1	1	0.4774067000253126	0.4903146693303707	2	1
18	17	2	0.6	0.1	1	0.4868470974909141	1	2	0.4042000999907032	0.4605918536684774	2	0
18	18	2	0.6	0.1	1	0.5238273940912591	1	2	0.3469824000494555	0.5756346694912629	2	0
18	19	2	0.6	0.1	1	0.5036722551948456	1	2	0.6230313000269234	0.4716437373703163	1	0
18	20	2	0.6	0.1	1	0.4608026009487601	1	2	0.4894073000177741	0.4236188824143974	2	0
19	1	1	0.5	0.5	1	0.4326670828663379	1	1	0.8802101000910625	0.4325348088892061	2	1
19	2	1	0.5	0.5	1	0.4678750961630066	1	1	0.8800298999994993	0.5144222141777305	2	1
19	3	1	0.5	0.5	1	0.5155785898141736	1	2	0.8322488999692723	0.4933525669306729	2	0
19	4	1	0.5	0.5	1	0.5147481005620408	1	1	1.560988700017333	0.4976175693219753	1	1
19	5	1	0.5	0.5	1	0.5963442755513418	1	1	0.6619958999799564	0.5961001399894745	2	1
19	6	1	0.5	0.5	1	0.581093364588861	1	2	1.094965099939145	0.4081531039503824	2	0
19	7	1	0.5	0.5	1	0.4716789929242091	1	1	1.440710399998352	0.5057235912327371	2	1
19	8	1	0.5	0.5	1	0.4484144613068801	1	2	1.145328599959612	0.5818621676095926	2	0
19	9	1	0.5	0.5	1	0.4359878312559924	1	2	0.5102733999956399	0.4823368299110686	1	0
19	10	1	0.5	0.5	1	0.5808393138263804	1	2	0.7274318999843672	0.4219121590035648	2	0
19	11	1	0.5	0.5	1	0.5975027038811352	1	1	0.7413062999257818	0.5292507494052415	2	1
19	12	1	0.5	0.5	1	0.4887411807784605	1	2	0.6499911000719294	0.4793028994188565	1	0
19	13	1	0.5	0.5	1	0.5927667061926811	1	2	0.9889596001012251	0.5694025022935975	2	0
19	14	1	0.5	0.5	1	0.4894453498380556	1	1	0.5887593000661582	0.487618368709169	1	1
19	15	1	0.5	0.5	1	0.4691036381198427	1	2	0.4677463000407442	0.5989438799970076	2	0
19	16	1	0.5	0.5	1	0.5810690921383583	1	1	0.1795668000122532	0.4052384636634905	2	1
19	17	1	0.5	0.5	1	0.5184732999308198	1	2	0.175095499958843	0.449456789715925	2	0
19	18	1	0.5	0.5	1	0.5144341853697405	1	1	0.1014134000288323	0.4214936168787611	1	1
19	19	1	0.5	0.5	1	0.4735513942876474	1	1	1.160217100055888	0.5840340153609073	1	1
19	20	1	0.5	0.5	1	0.5774182507178127	1	1	0.9003664000192657	0.4723530559148388	2	1
20	1	1	0.5	0.5	1	0.4481898529301307	1	1	1.25811719999183	0.4893498549517726	1	1
20	2	1	0.5	0.5	1	0.4002092235693979	1	1	1.09693369991146	0.5903958921765576	2	1
20	3	1	0.5	0.5	1	0.520204456789787	1	2	1.291313599911518	0.4023241737070802	2	0
20	4	1	0.5	0.5	1	0.5955088522163794	1	2	0.5089564999798313	0.4665005942357533	1	0
20	5	1	0.5	0.5	1	0.4032232128830465	1	1	1.005357799935155	0.4505930056731668	2	1
20	6	1	0.5	0.5	1	0.4642156045560872	1	1	1.325821700040251	0.4646646547969847	2	1
20	7	1	0.5	0.5	1	0.4063835884964696	1	2	1.489855600055307	0.4968422799320659	1	0
20	8	1	0.5	0.5	1	0.4324520738507788	1	2	1.182507000048645	0.4839179772571951	2	0
20	9	1	0.5	0.5	1	0.5354317907524411	1	1	1.018707200069912	0.5415129770034836	2	1
20	10	1	0.5	0.5	1	0.501693221185882	1	1	0.8536049000686035	0.4797918456177326	1	1
20	11	1	0.5	0.5	1	0.4481497922345505	1	2	1.617377800052054	0.4386668607250609	2	0
20	12	1	0.5	0.5	1	0.533628116913819	1	1	1.686007100041024	0.5796305435626911	2	1
20	13	1	0.5	0.5	1	0.5094176654267205	1	2	1.594387500081211	0.4192535662031571	2	0
20	14	1	0.5	0.5	1	0.4519133699866219	1	1	1.648787299985997	0.4795045197037585	1	1
20	15	1	0.5	0.5	1	0.435297838234498	1	1	1.537077100016177	0.495681101503576	2	1
20	16	1	0.5	0.5	1	0.4443661886610093	1	1	0.5032797999447212	0.5817384634475095	2	1
20	17	1	0.5	0.5	1	0.4848777513560893	1	2	0.6488158000865951	0.5317269106776021	2	0
20	18	1	0.5	0.5	1	0.49136004231053	1	1	0.5048494000220671	0.4810542255039976	2	1
20	19	1	0.5	0.5	1	0.4077789147410502	1	1	0.5475815999088809	0.4326936229499319	1	1
20	20	1	0.5	0.5	1	0.5739764004896434	1	2	0.6415619000326842	0.5312581222362359	2	0
