blockNum	trialNum	condition	pWin1	pWin2	optimalResponse	preStimulusDelay	responded	response	rt	preFeedbackDelay	outcome	optimal
1	1	2	0.6	0.1	1	0.4441660383958984	1	1	1.347487199999705	0.4030794420051602	2	1
1	2	2	0.6	0.1	1	0.4812803127485331	1	1	0.3161361000002216	0.4296234439705442	1	1
1	3	2	0.6	0.1	1	0.5429971400313345	1	2	0.3138172999997551	0.5602088397018323	2	0
1	4	2	0.6	0.1	1	0.5850720429502547	1	2	0.397550499999852	0.5549251524623787	1	0
1	5	2	0.6	0.1	1	0.4889647124305517	1	2	1.719345999999859	0.5207270918090887	2	0
1	6	2	0.6	0.1	1	0.512264810936887	1	2	0.0008155000000442669	0.4690143277768085	2	0
1	7	2	0.6	0.1	1	0.5041353855131082	1	2	0.4009661000000051	0.5570467962456727	2	0
1	8	2	0.6	0.1	1	0.4706104635885765	1	2	0.4707141000003503	0.4324678404783232	1	0
1	9	2	0.6	0.1	1	0.5096516364660819	1	1	0.4337636999998722	0.5657589276705348	1	1
1	10	2	0.6	0.1	1	0.4173573010368803	1	2	0.3115146000000095	0.4757321034198074	1	0
1	11	2	0.6	0.1	1	0.5692530196253754	1	2	0.7265182999999524	0.5646845616519662	2	0
1	12	2	0.6	0.1	1	0.5079037004721961	1	2	0.3124655999999959	0.4337757638351022	2	0
1	13	2	0.6	0.1	1	0.4928717452353921	1	2	0.3074566000000232	0.4312064761263406	2	0
1	14	2	0.6	0.1	1	0.560682312664848	1	2	0.2790571999998974	0.5697826310917345	2	0
1	15	2	0.6	0.1	1	0.4783504944061969	1	2	0.2005966000001536	0.5657296713554283	2	0
1	16	2	0.6	0.1	1	0.5400605036207491	1	2	0.5621777000001202	0.5012967227590847	2	0
1	17	2	0.6	0.1	1	0.5416740568540468	1	1	0.5607379999996738	0.53505055953083	2	1
1	18	2	0.6	0.1	1	0.4805401718509701	1	1	0.2277475000000777	0.5450061130878012	1	1
1	19	2	0.6	0.1	1	0.4982927191569615	1	1	0.5488701999997829	0.5870550160904221	2	1
1	20	2	0.6	0.1	1	0.4280389735741718	1	1	0.3480137000001378	0.5183512711046725	1	1
2	1	2	0.1	0.6	2	0.5000949653048923	1	1	0.9508396000001085	0.464986372485187	2	0
2	2	2	0.1	0.6	2	0.474842287125335	1	2	0.6609638999998424	0.4153993011972526	2	1
2	3	2	0.1	0.6	2	0.4615432397312415	1	2	0.0004097000000911066	0.4815683513104967	1	1
2	4	2	0.1	0.6	2	0.4390576221663691	1	2	0.7835405999999239	0.5131486925505864	2	1
2	5	2	0.1	0.6	2	0.5392166123854863	1	2	0.5560657999999421	0.5106323666743775	1	1
2	6	2	0.1	0.6	2	0.5479012488276316	1	1	0.2907463000001371	0.5727933757365464	2	0
2	7	2	0.1	0.6	2	0.4679416958607117	1	1	0.0005516999999599648	0.5788871123908029	1	0
2	8	2	0.1	0.6	2	0.4568971984764564	1	1	0.4780850000001919	0.5588747385016846	2	0
2	9	2	0.1	0.6	2	0.5887071376149801	1	1	0.3396957999998449	0.5893942865629614	2	0
2	10	2	0.1	0.6	2	0.4827544922405387	1	1	0.7706909999997151	0.4630524759762773	2	0
2	11	2	0.1	0.6	2	0.5006836372082909	1	1	0.3691108000002714	0.5215190328936641	2	0
2	12	2	0.1	0.6	2	0.4956432688985428	1	1	0.4173046999999315	0.4114659763586899	2	0
2	13	2	0.1	0.6	2	0.4217464615196229	1	1	0.2652588999999352	0.5392305097865628	2	0
2	14	2	0.1	0.6	2	0.5506748187252517	1	2	0.2762359000003016	0.50065166038211	1	1
2	15	2	0.1	0.6	2	0.4823776409095096	1	1	0.4502473000002283	0.4879750040681402	2	0
2	16	2	0.1	0.6	2	0.4489462769658881	1	2	0.2907157999998162	0.5292792667250492	2	1
2	17	2	0.1	0.6	2	0.4491671601669901	1	2	0.000718100000085542	0.4159119387103075	1	1
2	18	2	0.1	0.6	2	0.423274554500562	1	2	0.8290197999999691	0.5434661044253792	2	1
2	19	2	0.1	0.6	2	0.5475725970084073	1	1	0.3828947999995762	0.5168168151354978	2	0
2	20	2	0.1	0.6	2	0.4142605361591586	1	1	0.4979321000000709	0.4141872626762282	2	0
3	1	1	0.5	0.5	1	0.448719015871627	0	n/a	n/a	n/a	n/a	n/a
3	2	1	0.5	0.5	1	0.4904052911264301	1	2	0.001464499999656255	0.5445660969829738	1	0
3	3	1	0.5	0.5	1	0.4405991424310577	1	1	0.3444267999998374	0.450200526937944	2	1
3	4	1	0.5	0.5	1	0.5553770443643926	1	2	0.5328510999997889	0.5970831133996373	1	0
3	5	1	0.5	0.5	1	0.5431422025415742	1	2	0.4591488000000936	0.5453052297869658	2	0
3	6	1	0.5	0.5	1	0.4242815766091707	1	2	0.6037790999998833	0.5188818706474131	2	0
3	7	1	0.5	0.5	1	0.4051166190286081	1	1	0.0004308999996283092	0.5412441549267363	1	1
3	8	1	0.5	0.5	1	0.4415468151383809	1	2	0.2827855999998974	0.5045900341913901	1	0
3	9	1	0.5	0.5	1	0.4863525825255713	1	2	0.292118599999867	0.5429723505025175	1	0
3	10	1	0.5	0.5	1	0.4202700520606479	1	2	0.3488876000001255	0.5632538469674297	2	0
3	11	1	0.5	0.5	1	0.4895348235254562	1	2	0.0006611999997403473	0.5055963211903759	2	0
3	12	1	0.5	0.5	1	0.5015470987762117	1	2	0.7299445000003288	0.5763831714914593	2	0
3	13	1	0.5	0.5	1	0.56024912090705	1	1	0.0004031999997096136	0.5745875378925667	2	1
3	14	1	0.5	0.5	1	0.463331583154943	1	1	0.4108770000002551	0.4518360969257185	1	1
3	15	1	0.5	0.5	1	0.5151985577158298	1	1	1.085358799999995	0.4185976774183809	2	1
3	16	1	0.5	0.5	1	0.5040452615714314	1	2	0.5983996999998453	0.4663121579550713	2	0
3	17	1	0.5	0.5	1	0.4784588380522323	1	2	0.4467198000002099	0.4506930391949663	2	0
3	18	1	0.5	0.5	1	0.5607583876054071	1	2	0.4054055000001426	0.5044506472711434	2	0
3	19	1	0.5	0.5	1	0.5585848907256779	1	1	0.01485000000002401	0.5488696561950948	1	1
3	20	1	0.5	0.5	1	0.4440220852473192	1	1	0.6001685000001089	0.5762708510049571	2	1
4	1	1	0.5	0.5	1	0.4966818584139891	1	1	1.321150499999931	0.5463993541423481	2	1
4	2	1	0.5	0.5	1	0.4412322991310674	1	1	0.6294726000000992	0.5464003528501713	2	1
4	3	1	0.5	0.5	1	0.5303967530494389	1	2	0.1179809000000205	0.5644052081411446	2	0
4	4	1	0.5	0.5	1	0.4838424409801234	1	2	0.3253210000002582	0.5865703921275174	1	0
4	5	1	0.5	0.5	1	0.4366490763815127	1	2	0.5113077000000885	0.5735196702643002	2	0
4	6	1	0.5	0.5	1	0.5225479569050381	1	2	0.4149691000002349	0.4984779790223535	2	0
4	7	1	0.5	0.5	1	0.5340899203993779	1	2	0.7184720000000198	0.4636679692528787	2	0
4	8	1	0.5	0.5	1	0.5496757949593321	1	2	0.2547563999996783	0.5387148131338423	2	0
4	9	1	0.5	0.5	1	0.5903083560347377	1	1	0.3910321000003023	0.5652474313338636	1	1
4	10	1	0.5	0.5	1	0.5196387877410144	1	1	0.203632799999923	0.4989470335506214	2	1
4	11	1	0.5	0.5	1	0.5139179723365841	1	1	0.0004031999997096136	0.5673187614169619	2	1
4	12	1	0.5	0.5	1	0.5247571657463957	1	2	0.6048964999999953	0.4905773088413209	2	0
4	13	1	0.5	0.5	1	0.516057119857901	1	2	0.0004061000004185189	0.528501376882992	1	0
4	14	1	0.5	0.5	1	0.5858883239949315	1	2	0.4084594999999354	0.4623933011414182	1	0
4	15	1	0.5	0.5	1	0.4233539076058621	1	2	0.5175203000003421	0.4621076141224769	2	0
4	16	1	0.5	0.5	1	0.5519817333546168	1	2	0.3037837000001673	0.5078328498749412	2	0
4	17	1	0.5	0.5	1	0.5626654477076494	1	1	0.5464919000000918	0.454542720310914	2	1
4	18	1	0.5	0.5	1	0.526380486692187	1	2	0.4877001999998356	0.4465346205932425	1	0
4	19	1	0.5	0.5	1	0.5988095271035749	1	2	0.5681838999998945	0.5900988331145903	2	0
4	20	1	0.5	0.5	1	0.4700931685324235	1	2	0.4321953999997277	0.5976444129758791	2	0
5	1	2	0.1	0.6	2	0.5007314928429304	0	n/a	n/a	n/a	n/a	n/a
5	2	2	0.1	0.6	2	0.5909611214728456	1	1	0.0004036999998788815	0.5498095094494411	1	0
5	3	2	0.1	0.6	2	0.584251353132514	1	2	0.3416093999999248	0.4468722369230231	1	1
5	4	2	0.1	0.6	2	0.4598794633324127	1	2	0.2642172000000755	0.4267812354877705	1	1
5	5	2	0.1	0.6	2	0.5455135000662372	1	2	0.4350461999997606	0.5565618066410538	1	1
5	6	2	0.1	0.6	2	0.4566604100389541	1	2	0.4681387000000541	0.4109361668034871	1	1
5	7	2	0.1	0.6	2	0.4739152054342584	1	2	0.3963601000000381	0.4812439786367327	2	1
5	8	2	0.1	0.6	2	0.4879940947006235	1	1	0.269333799999913	0.5153733192681118	2	0
5	9	2	0.1	0.6	2	0.473458261405484	1	1	0.4770932000001267	0.4641120223297524	2	0
5	10	2	0.1	0.6	2	0.4605122855749589	1	2	0.2397298999999293	0.5764397549011636	1	1
5	11	2	0.1	0.6	2	0.4762517995786671	1	1	0.3128771000001507	0.4327849672913859	2	0
5	12	2	0.1	0.6	2	0.4626945359773129	1	2	0.1012052999999469	0.5698672641083414	2	1
5	13	2	0.1	0.6	2	0.5630335054264595	1	2	0.2634181000003082	0.4965027453613952	2	1
5	14	2	0.1	0.6	2	0.4984138082377771	1	1	0.001021800000216899	0.5412303676553573	2	0
5	15	2	0.1	0.6	2	0.5043699370864	1	1	0.2465903000002072	0.5163163744318395	2	0
5	16	2	0.1	0.6	2	0.4705714410389296	1	1	0.1619689999997718	0.548266511173307	2	0
5	17	2	0.1	0.6	2	0.5062356895077538	1	2	0.4054897000000892	0.4513879800616553	1	1
5	18	2	0.1	0.6	2	0.5780927793849514	1	2	0.1345645999999761	0.5979836606166192	1	1
5	19	2	0.1	0.6	2	0.4002468521961125	1	2	0.3041415999996389	0.4432569571490718	2	1
5	20	2	0.1	0.6	2	0.5631080775524455	1	2	0.3377926999996816	0.4316702506501322	1	1
6	1	2	0.1	0.6	2	0.4452508585214499	1	2	0.9607770000002347	0.5590684586310861	1	1
6	2	2	0.1	0.6	2	0.4618851795502333	1	2	0.3622208000001592	0.552890975911533	1	1
6	3	2	0.1	0.6	2	0.449697331245059	1	2	0.5058571999998094	0.5304120688488466	2	1
6	4	2	0.1	0.6	2	0.5153666082649446	1	1	0.9998799999998482	0.5585623227675136	2	0
6	5	2	0.1	0.6	2	0.5680060967593956	1	1	0.7024296999998114	0.4439747797437757	2	0
6	6	2	0.1	0.6	2	0.4014217116508668	1	1	0.6862390999999661	0.5920418081891037	1	0
6	7	2	0.1	0.6	2	0.4894244493161976	1	2	0.5375199999998586	0.4913170280555641	2	1
6	8	2	0.1	0.6	2	0.4203063716016266	1	1	0.4489533000000847	0.4683159423908682	2	0
6	9	2	0.1	0.6	2	0.5028221931732819	1	1	0.3850016000001233	0.5841758965858649	2	0
6	10	2	0.1	0.6	2	0.5992731897851403	1	2	0.1996045000000777	0.5391726225638925	2	1
6	11	2	0.1	0.6	2	0.5031665178799855	1	2	0.4246963000000505	0.5764408489091378	1	1
6	12	2	0.1	0.6	2	0.4159801551443261	1	2	0.6154003999999986	0.5190652547479769	1	1
6	13	2	0.1	0.6	2	0.515491483539658	1	2	0.941783100000066	0.4576525589878777	1	1
6	14	2	0.1	0.6	2	0.4139002772752868	1	2	1.011216000000331	0.5926497631318873	1	1
6	15	2	0.1	0.6	2	0.4760993684652561	1	2	0.848087200000009	0.5767928303909111	1	1
6	16	2	0.1	0.6	2	0.547621237869921	1	2	0.09688059999962206	0.5133701388835386	2	1
6	17	2	0.1	0.6	2	0.55308976162769	1	1	0.5080471000001126	0.585678087298629	2	0
6	18	2	0.1	0.6	2	0.4129593008983196	1	1	0.706528299999718	0.5551167752286414	1	0
6	19	2	0.1	0.6	2	0.4057906817987829	1	1	0.6677982000001066	0.4664720712293069	2	0
6	20	2	0.1	0.6	2	0.4840955129296367	1	2	0.7005893999998989	0.4454824281947896	2	1
7	1	1	0.5	0.5	1	0.5153500733362339	1	2	0.9915157999998883	0.4674833102485342	2	0
7	2	1	0.5	0.5	1	0.4266084502498597	1	1	0.1500616000002992	0.5623498061478809	1	1
7	3	1	0.5	0.5	1	0.4168917601111246	1	1	0.2460784999998396	0.4051793938603479	1	1
7	4	1	0.5	0.5	1	0.4782358073893538	1	1	0.1467200999995839	0.5298136208456781	2	1
7	5	1	0.5	0.5	1	0.4934045043051766	1	1	0.6224815999999009	0.5848779859604408	2	1
7	6	1	0.5	0.5	1	0.4434986368297447	1	2	0.2791094000003795	0.5270207430201739	1	0
7	7	1	0.5	0.5	1	0.5634185136093804	1	2	0.5081016999997701	0.4977705608393033	1	0
7	8	1	0.5	0.5	1	0.5590457165768316	1	2	1.233517299999676	0.5054565731694495	2	0
7	9	1	0.5	0.5	1	0.4263982561653738	1	2	0.923234599999887	0.5058104253063135	1	0
7	10	1	0.5	0.5	1	0.4530407285598041	1	1	0.4442033999998785	0.4813969525330203	2	1
7	11	1	0.5	0.5	1	0.5502136561896829	1	1	0.3807589000002736	0.5108772850228923	1	1
7	12	1	0.5	0.5	1	0.4593725194590218	1	1	0.2841085000000021	0.4097609503756412	2	1
7	13	1	0.5	0.5	1	0.5429734991157183	1	2	0.4453266999998959	0.5556542093619715	1	0
7	14	1	0.5	0.5	1	0.4224343894659766	1	2	0.6525784999998905	0.4823569048472113	1	0
7	15	1	0.5	0.5	1	0.5875805365231114	1	2	0.603019900000163	0.5142091049877416	1	0
7	16	1	0.5	0.5	1	0.5563634277325393	1	1	0.3945982999998705	0.5786226216934433	2	1
7	17	1	0.5	0.5	1	0.408975780175346	1	2	0.5037948999997752	0.525594368867371	2	0
7	18	1	0.5	0.5	1	0.576286217893436	1	2	0.3022766999997657	0.431790003390458	1	0
7	19	1	0.5	0.5	1	0.5670096941598428	1	2	0.4967184000001907	0.5114144394346065	2	0
7	20	1	0.5	0.5	1	0.5554249686832381	1	2	0.01990250000017113	0.5549249575671888	2	0
8	1	1	0.5	0.5	1	0.5310414206751064	1	2	0.8579783000000134	0.4511164517821398	1	0
8	2	1	0.5	0.5	1	0.4879641753079617	1	2	0.3480328999999074	0.5702429265254272	2	0
8	3	1	0.5	0.5	1	0.4636917605725626	1	2	0.4332049999998162	0.4771920979682408	2	0
8	4	1	0.5	0.5	1	0.4677911891412136	1	2	0.5212111000000732	0.4070389509727034	2	0
8	5	1	0.5	0.5	1	0.4003702721746347	1	1	0.0004324999999880674	0.4625289076645899	1	1
8	6	1	0.5	0.5	1	0.4109665283900589	1	2	0.4022399999998925	0.5832911719698461	1	0
8	7	1	0.5	0.5	1	0.5261987801080447	1	2	0.001464200000100391	0.4022839070541622	2	0
8	8	1	0.5	0.5	1	0.55360371122728	1	1	0.3565177999998923	0.4825719339773284	2	1
8	9	1	0.5	0.5	1	0.4833361687616999	1	1	0.3554466999999022	0.407145888678667	1	1
8	10	1	0.5	0.5	1	0.4292206111989414	1	1	0.4605431999998473	0.5417137907828077	2	1
8	11	1	0.5	0.5	1	0.5189006328746761	1	2	0.497985399999834	0.5298900188381865	2	0
8	12	1	0.5	0.5	1	0.4492859056817211	1	2	0.6158762999998544	0.5525391724754544	1	0
8	13	1	0.5	0.5	1	0.4075785997348674	1	2	0.4173618999998325	0.4036156270049868	2	0
8	14	1	0.5	0.5	1	0.5650462967099978	1	2	0.4461957000003167	0.5783711095230182	1	0
8	15	1	0.5	0.5	1	0.4546674762712778	1	2	0.4252111000000696	0.5122001538052431	1	0
8	16	1	0.5	0.5	1	0.5088221883333317	1	2	0.4171544000000722	0.5340094760897213	2	0
8	17	1	0.5	0.5	1	0.4007467684875649	1	1	0.3694701000003988	0.4389420202337228	2	1
8	18	1	0.5	0.5	1	0.4449996739049478	1	1	0.378631999999925	0.5191693353208646	1	1
8	19	1	0.5	0.5	1	0.5396558996891571	1	2	0.4420792000000802	0.4583169563775181	2	0
8	20	1	0.5	0.5	1	0.4373020879416467	1	2	0.383318700000018	0.4623598427684333	1	0
9	1	2	0.1	0.6	2	0.5850605643049677	1	1	0.9293981000000713	0.5358072860332828	2	0
9	2	2	0.1	0.6	2	0.5791206572520559	1	1	0.4922971000000871	0.5974953366368796	2	0
9	3	2	0.1	0.6	2	0.4441874212217332	1	2	0.3254426999997122	0.520759954580344	1	1
9	4	2	0.1	0.6	2	0.532104319656348	1	2	0.6588409000000865	0.5527221026695975	2	1
9	5	2	0.1	0.6	2	0.5904271434282452	1	1	0.5174678000003041	0.5565712052129214	2	0
9	6	2	0.1	0.6	2	0.5162479870577587	1	1	0.3765692999995736	0.515198331791877	2	0
9	7	2	0.1	0.6	2	0.4242619969913727	1	1	0.4143346999999267	0.4594094347913166	2	0
9	8	2	0.1	0.6	2	0.4160731936752905	1	2	0.3856238000003032	0.4033543300696807	2	1
9	9	2	0.1	0.6	2	0.5647773502592141	1	2	0.4648534999996627	0.4271015053007693	1	1
9	10	2	0.1	0.6	2	0.4475842243489516	1	2	0.2975096999998641	0.5234665215405282	1	1
9	11	2	0.1	0.6	2	0.4010153511462062	1	2	0.4407314000000042	0.4537262086369941	2	1
9	12	2	0.1	0.6	2	0.5455362307145996	1	1	0.1580378000003293	0.5271839819781419	2	0
9	13	2	0.1	0.6	2	0.4513520565435161	1	1	0.3767244999999093	0.401872575444935	2	0
9	14	2	0.1	0.6	2	0.4065425259999121	1	2	0.242627099999936	0.53970219845652	1	1
9	15	2	0.1	0.6	2	0.4419009981258514	1	2	0.1948336000000381	0.5126451616649448	1	1
9	16	2	0.1	0.6	2	0.4492982498720047	1	2	0.2430491999998594	0.5327318163844377	2	1
9	17	2	0.1	0.6	2	0.5192410681139755	1	2	0.3240046999999322	0.5605555865998444	1	1
9	18	2	0.1	0.6	2	0.4731313496763486	1	2	0.5858774999996967	0.4774483943320456	1	1
9	19	2	0.1	0.6	2	0.4610008816566762	1	2	0.5545552999997199	0.4217611783576232	1	1
9	20	2	0.1	0.6	2	0.4033540754316006	1	2	0.5648688999999649	0.4137537838860234	1	1
10	1	1	0.5	0.5	1	0.5635777418614348	1	1	1.037503699999888	0.4811594427892243	2	1
10	2	1	0.5	0.5	1	0.4212664397088556	1	2	0.4144129999999677	0.4636249420451472	1	0
10	3	1	0.5	0.5	1	0.5573913394906171	1	2	0.3066291000000092	0.5985728456122799	2	0
10	4	1	0.5	0.5	1	0.5340755871841203	1	2	0.449831400000221	0.5059221606866586	2	0
10	5	1	0.5	0.5	1	0.4887238114850477	1	2	0.6340777999998863	0.4092203697854934	1	0
10	6	1	0.5	0.5	1	0.466615173187349	1	2	0.6023935000002894	0.4374564832544148	2	0
10	7	1	0.5	0.5	1	0.5181887259367051	1	2	0.3792061999997713	0.4368562264040222	1	0
10	8	1	0.5	0.5	1	0.4944845092319074	1	2	0.4897565999999642	0.4021241089548191	2	0
10	9	1	0.5	0.5	1	0.4574339531931095	1	2	0.1751014999999825	0.581357092223442	1	0
10	10	1	0.5	0.5	1	0.5351262693389294	1	1	0.3065799999999399	0.4150560946784246	2	1
10	11	1	0.5	0.5	1	0.4382277754410928	1	1	0.7182715000003554	0.4585550908891556	1	1
10	12	1	0.5	0.5	1	0.5844623988996913	1	1	0.5715452999997979	0.4940080667505706	2	1
10	13	1	0.5	0.5	1	0.5759163720666067	1	1	0.7635979000001498	0.431065218761418	2	1
10	14	1	0.5	0.5	1	0.4985343507030285	1	2	0.6330273000003217	0.4513306870411063	2	0
10	15	1	0.5	0.5	1	0.4614622274306563	1	2	0.3629528000001301	0.4115140696333667	1	0
10	16	1	0.5	0.5	1	0.4427818864871417	1	2	0.3364504000001034	0.4930895705432449	2	0
10	17	1	0.5	0.5	1	0.400958727945396	1	2	0.4367864999999256	0.478714394044546	1	0
10	18	1	0.5	0.5	1	0.5065572659025004	1	1	0.558944099999735	0.4534013479393441	1	1
10	19	1	0.5	0.5	1	0.4464329223899034	1	2	0.4953824999997778	0.5583842070873209	2	0
10	20	1	0.5	0.5	1	0.5301437059755352	1	2	0.2169953000002351	0.4254334052475069	1	0
11	1	2	0.6	0.1	1	0.4037528214072003	0	n/a	n/a	n/a	n/a	n/a
11	2	2	0.6	0.1	1	0.5714501162637405	1	2	0.01199739999992744	0.4123544024664272	2	0
11	3	2	0.6	0.1	1	0.5940741857980707	1	2	0.5659774000000652	0.4543655752356845	2	0
11	4	2	0.6	0.1	1	0.4788527152803598	1	1	0.3060992999999144	0.4533473959287209	1	1
11	5	2	0.6	0.1	1	0.5146281988241076	1	1	0.1330259999999726	0.5012988881984701	1	1
11	6	2	0.6	0.1	1	0.5917826994919828	1	1	0.2751491999997597	0.5466324838555601	2	1
11	7	2	0.6	0.1	1	0.4915576855350859	1	1	0.3350196999999753	0.4664071548697272	2	1
11	8	2	0.6	0.1	1	0.4233500828822161	1	1	0.3970509000000675	0.5421584598790982	1	1
11	9	2	0.6	0.1	1	0.4718153581347973	1	1	0.3339160999998967	0.4584985641455174	1	1
11	10	2	0.6	0.1	1	0.4705268045253588	1	1	0.333669799999825	0.4722933454263993	1	1
11	11	2	0.6	0.1	1	0.4305113946300959	1	1	0.4412993999999344	0.4380335602116595	1	1
11	12	2	0.6	0.1	1	0.4295320603889139	1	1	0.4340510000001814	0.4304259622136675	1	1
11	13	2	0.6	0.1	1	0.4934234183162233	1	1	0.359794100000272	0.5128566113320673	2	1
11	14	2	0.6	0.1	1	0.5509754830146647	1	2	0.3169103000000177	0.4523871051587944	1	0
11	15	2	0.6	0.1	1	0.5702773510439032	1	2	0.5107680000000983	0.4976757168305189	2	0
11	16	2	0.6	0.1	1	0.4225317330953627	1	2	0.4876772000002347	0.5047095796450403	2	0
11	17	2	0.6	0.1	1	0.5031291204703814	1	1	0.2389189999998962	0.4980375506246352	2	1
11	18	2	0.6	0.1	1	0.4111985672363397	1	1	0.3219485999998142	0.5157014505023694	2	1
11	19	2	0.6	0.1	1	0.434207965421232	1	1	0.133303000000069	0.5608089642633174	1	1
11	20	2	0.6	0.1	1	0.4451559435800174	1	1	0.4153205000002345	0.4033445389817608	1	1
12	1	2	0.6	0.1	1	0.497812208335493	1	2	1.345868800000062	0.5761236054737878	2	0
12	2	2	0.6	0.1	1	0.4212206309391792	1	2	0.06960100000014791	0.4650791701776599	2	0
12	3	2	0.6	0.1	1	0.4783991248113882	1	2	0.6257171000002018	0.4459539402760695	2	0
12	4	2	0.6	0.1	1	0.4420998662229041	1	2	0.2574239999999008	0.5338202726859453	2	0
12	5	2	0.6	0.1	1	0.560328234685985	1	1	0.0006745999999111518	0.4572848532762617	1	1
12	6	2	0.6	0.1	1	0.5053436751104396	1	1	0.00148319999971136	0.4015524342288494	1	1
12	7	2	0.6	0.1	1	0.5844279548409831	1	1	0.1344593000003442	0.491913447769282	1	1
12	8	2	0.6	0.1	1	0.5745211088239697	1	1	0.4545782000000145	0.5323229561248038	2	1
12	9	2	0.6	0.1	1	0.4187175207921754	1	2	0.2804352000002837	0.5307821816928919	2	0
12	10	2	0.6	0.1	1	0.4553448075269754	1	2	0.3249674000003324	0.5968039559778343	2	0
12	11	2	0.6	0.1	1	0.4946257801480399	1	1	0.000403200000164361	0.4571197279408214	1	1
12	12	2	0.6	0.1	1	0.5547049528777891	1	1	0.4383091999998214	0.4201035800095999	1	1
12	13	2	0.6	0.1	1	0.4325829217857851	1	1	1.017159199999696	0.5078303466989895	1	1
12	14	2	0.6	0.1	1	0.4166963920281742	1	1	0.7143605000001116	0.4679200692609843	1	1
12	15	2	0.6	0.1	1	0.5168484502707352	1	1	0.4433586000000105	0.4866948222437506	1	1
12	16	2	0.6	0.1	1	0.5894730260991545	1	1	0.378501099999994	0.4144843653160918	2	1
12	17	2	0.6	0.1	1	0.5045329713096951	1	1	0.4638359000000492	0.4839475319291252	1	1
12	18	2	0.6	0.1	1	0.5838124665522251	1	1	0.4426423999998406	0.4158666222161084	2	1
12	19	2	0.6	0.1	1	0.4694066652222314	1	1	0.3634993000000577	0.4296915503395821	1	1
12	20	2	0.6	0.1	1	0.5685942562678798	1	2	0.3437862000000678	0.4728272033910021	2	0
13	1	1	0.5	0.5	1	0.4966645211963296	1	2	0.5789662000001954	0.5747591015035431	2	0
13	2	1	0.5	0.5	1	0.5476016568449106	1	2	0.8047096000000238	0.593046674498892	2	0
13	3	1	0.5	0.5	1	0.4562658591254951	1	1	0.5260210999999799	0.4208504727235586	2	1
13	4	1	0.5	0.5	1	0.4770798319198279	1	1	0.07566270000006625	0.4416026781503256	2	1
13	5	1	0.5	0.5	1	0.4603927769332065	1	1	0.3037067000000206	0.5174715192371472	1	1
13	6	1	0.5	0.5	1	0.4365781899460697	1	1	0.2772273000000496	0.4630089610964089	1	1
13	7	1	0.5	0.5	1	0.5234624520611303	1	1	0.2963933000000907	0.4032382766115625	2	1
13	8	1	0.5	0.5	1	0.4313760984131287	1	2	0.1084357999998247	0.4999317392325638	1	0
13	9	1	0.5	0.5	1	0.4975043586933142	1	2	0.2613470999999663	0.581042867503049	2	0
13	10	1	0.5	0.5	1	0.4198486837924908	1	1	0.4247522000000572	0.573507009067947	1	1
13	11	1	0.5	0.5	1	0.527865574758038	1	2	0.0004081000001860957	0.5372561271743235	1	0
13	12	1	0.5	0.5	1	0.457227737577639	1	2	0.469047000000046	0.4076623051165481	2	0
13	13	1	0.5	0.5	1	0.511633074269869	1	2	0.3521771000000626	0.400918574444981	1	0
13	14	1	0.5	0.5	1	0.433506538777246	1	1	0.2618507999995927	0.4577216184478782	1	1
13	15	1	0.5	0.5	1	0.5068757062833724	1	2	0.3359469000001809	0.4016083074495013	1	0
13	16	1	0.5	0.5	1	0.5615209461357682	1	1	0.2577023999997436	0.551073416046469	1	1
13	17	1	0.5	0.5	1	0.5144847035397446	1	2	0.1988146999997298	0.4618993072696547	2	0
13	18	1	0.5	0.5	1	0.5044659712331615	1	2	0.1837850000001708	0.5191314131961553	1	0
13	19	1	0.5	0.5	1	0.4792266111826334	1	1	0.2819895000002361	0.537812027693767	2	1
13	20	1	0.5	0.5	1	0.4108168121652122	1	1	0.1948010999999497	0.5486443105795913	2	1
14	1	1	0.5	0.5	1	0.5788225624591187	0	n/a	n/a	n/a	n/a	n/a
14	2	1	0.5	0.5	1	0.4270291807292613	1	1	0.1205483999997341	0.4680196055821761	2	1
14	3	1	0.5	0.5	1	0.5693121929992243	1	1	0.8254489000000831	0.5679773335468105	1	1
14	4	1	0.5	0.5	1	0.4347974577538944	1	2	0.4612087999998948	0.5796775364503168	2	0
14	5	1	0.5	0.5	1	0.4252783643015579	1	2	0.6215099000000919	0.4113237410642994	1	0
14	6	1	0.5	0.5	1	0.5918962383694936	1	1	1.180851899999652	0.4120394239020725	1	1
14	7	1	0.5	0.5	1	0.5134331520223644	1	1	0.4218347000000904	0.4218850160095843	2	1
14	8	1	0.5	0.5	1	0.4315237867339142	1	1	0.2707223000002159	0.4286663618853342	1	1
14	9	1	0.5	0.5	1	0.5699205975796269	1	2	0.0004269000000931555	0.4554992077183893	1	0
14	10	1	0.5	0.5	1	0.5878865163650627	1	2	0.7359750999999051	0.5930482071385157	1	0
14	11	1	0.5	0.5	1	0.579881956181221	1	2	0.8189155000000028	0.5918037699439571	1	0
14	12	1	0.5	0.5	1	0.5142006969017121	1	2	0.599279199999728	0.5400265757121712	2	0
14	13	1	0.5	0.5	1	0.4768170586484078	1	1	0.7213278999997783	0.5158074140954358	2	1
14	14	1	0.5	0.5	1	0.4718990198488384	1	2	0.407720000000154	0.5567213485198257	1	0
14	15	1	0.5	0.5	1	0.5608007293271274	1	2	0.1190735999998651	0.5710838765701239	2	0
14	16	1	0.5	0.5	1	0.5274148019387777	1	1	0.2985387999997329	0.4211470740917788	1	1
14	17	1	0.5	0.5	1	0.5680798216818056	1	1	0.08407769999985248	0.4055041557477902	2	1
14	18	1	0.5	0.5	1	0.5657687746901771	1	2	0.4382973000001584	0.5105454082428296	2	0
14	19	1	0.5	0.5	1	0.5061888802375459	1	2	0.3287490999996407	0.4057300300902772	1	0
14	20	1	0.5	0.5	1	0.5453474291485432	1	1	0.4151772000000165	0.4566294490146028	2	1
15	1	2	0.1	0.6	2	0.5032141943506881	1	1	1.449040599999989	0.5680983640743001	2	0
15	2	2	0.1	0.6	2	0.4613157666777117	1	1	0.7215733000002729	0.5394208405388744	2	0
15	3	2	0.1	0.6	2	0.468317886130686	1	2	0.5478109000000586	0.4832833472513826	2	1
15	4	2	0.1	0.6	2	0.4027974727572253	1	2	0.5495507999999063	0.4722154886697827	1	1
15	5	2	0.1	0.6	2	0.5088890939324565	1	2	0.3728138999999828	0.547315446417067	2	1
15	6	2	0.1	0.6	2	0.4983727434158315	1	2	0.3317045000003418	0.4077556338380697	1	1
15	7	2	0.1	0.6	2	0.4795196776380955	1	2	0.2174098000000413	0.5054029160737623	1	1
15	8	2	0.1	0.6	2	0.5977716685555743	1	1	0.4185247000000345	0.4713680661325247	1	0
15	9	2	0.1	0.6	2	0.4141256629337368	1	1	0.2770614000000933	0.5139536545701504	2	0
15	10	2	0.1	0.6	2	0.4435121824600669	1	1	0.0004299999995964754	0.4215297357338654	2	0
15	11	2	0.1	0.6	2	0.4221409412704362	1	1	0.1106494999999086	0.4438782488180725	2	0
15	12	2	0.1	0.6	2	0.4266608042089934	1	2	0.186913800000184	0.5329623474487043	2	1
15	13	2	0.1	0.6	2	0.4626814743433629	1	2	0.0005248999996183557	0.4676152649322023	1	1
15	14	2	0.1	0.6	2	0.4192586245205718	1	1	0.3925019000002976	0.4137259548410797	2	0
15	15	2	0.1	0.6	2	0.5943265659882546	1	1	0.5252391999997599	0.4263221275991804	2	0
15	16	2	0.1	0.6	2	0.4363988436697424	1	1	0.2829959999999119	0.5877370363986785	2	0
15	17	2	0.1	0.6	2	0.461552191571786	1	2	0.1182745999999497	0.594790605331595	2	1
15	18	2	0.1	0.6	2	0.4881049172860454	1	2	0.001217300000007526	0.4156334788673494	2	1
15	19	2	0.1	0.6	2	0.5209438232216719	1	2	0.2903163999999379	0.4794673485417181	2	1
15	20	2	0.1	0.6	2	0.4736586980042577	1	1	0.1055003999999826	0.4926413440809604	2	0
16	1	1	0.5	0.5	1	0.5721643262882229	1	1	1.567133300000023	0.5221826868029495	2	1
16	2	1	0.5	0.5	1	0.4282856275007999	1	2	0.7619442000000163	0.5059791871021778	2	0
16	3	1	0.5	0.5	1	0.4707623929243796	1	2	0.6768669999996746	0.5126843759681277	1	0
16	4	1	0.5	0.5	1	0.4130692708969549	1	2	0.6650316000000203	0.4516251216017367	2	0
16	5	1	0.5	0.5	1	0.4725896623429281	1	2	0.8138536999999815	0.5504878719429429	1	0
16	6	1	0.5	0.5	1	0.4685852646986284	1	1	0.5173534999998992	0.435644694759418	2	1
16	7	1	0.5	0.5	1	0.5186499411781265	1	2	0.786102199999732	0.5287586058378428	2	0
16	8	1	0.5	0.5	1	0.497879688764944	1	2	0.002278700000260869	0.4453757222016252	1	0
16	9	1	0.5	0.5	1	0.5718468869355654	1	2	0.459871099999873	0.4383222160804126	2	0
16	10	1	0.5	0.5	1	0.4683373233615568	1	1	0.5776757999997244	0.5130116554774066	2	1
16	11	1	0.5	0.5	1	0.5005061530915114	1	1	1.717452800000046	0.5507626218985093	1	1
16	12	1	0.5	0.5	1	0.5127384117908608	1	1	0.0847659000000931	0.5080523445249642	2	1
16	13	1	0.5	0.5	1	0.476813921540705	1	1	0.4880008000000089	0.5589722597608079	1	1
16	14	1	0.5	0.5	1	0.5828713239278475	1	2	0.4665621999997711	0.4049765015452962	1	0
16	15	1	0.5	0.5	1	0.4903482781513626	1	2	0.4376896999997371	0.5087138457963664	1	0
16	16	1	0.5	0.5	1	0.5056593783853076	1	1	0.4237347000002956	0.5516118597104918	1	1
16	17	1	0.5	0.5	1	0.4537768316930735	1	1	0.3705401000001984	0.4501839114256421	2	1
16	18	1	0.5	0.5	1	0.564712836697718	1	1	0.3614097999998194	0.4476539506522084	2	1
16	19	1	0.5	0.5	1	0.4888956778481283	1	2	0.12328239999988	0.4364236351379718	1	0
16	20	1	0.5	0.5	1	0.4000514746615366	1	2	0.0007215999999061751	0.4050621180570215	1	0
17	1	2	0.1	0.6	2	0.4455867601928335	1	2	0.7451206999999158	0.4142484575313854	1	1
17	2	2	0.1	0.6	2	0.5769793066780809	1	1	0.1973877999998876	0.5334666543087759	2	0
17	3	2	0.1	0.6	2	0.5211445831715733	1	1	0.1061523000003035	0.5987639577612097	2	0
17	4	2	0.1	0.6	2	0.4249157508717132	1	2	0.3151751999998851	0.4867467550392027	1	1
17	5	2	0.1	0.6	2	0.4772798170253625	1	1	0.3685479000000669	0.4711057895167117	2	0
17	6	2	0.1	0.6	2	0.5918727778960028	1	2	0.0004052000003866851	0.4737910073238271	1	1
17	7	2	0.1	0.6	2	0.5800597017585958	1	2	0.5439423000002535	0.4642617613145757	2	1
17	8	2	0.1	0.6	2	0.4096526124305898	1	1	0.3266398000000663	0.5335845296627411	2	0
17	9	2	0.1	0.6	2	0.5221243474229569	1	1	0.2074313000002803	0.5717940274701208	2	0
17	10	2	0.1	0.6	2	0.4438546280017267	1	2	0.2495181000003868	0.5446597671195286	1	1
17	11	2	0.1	0.6	2	0.4384237548478757	1	2	0.3373532999999043	0.4195092552672194	2	1
17	12	2	0.1	0.6	2	0.5518255987574673	1	2	0.4216191000000435	0.5816161749472808	2	1
17	13	2	0.1	0.6	2	0.5539351845428664	1	2	0.2620081000000027	0.4698081948778742	2	1
17	14	2	0.1	0.6	2	0.4606541886982035	1	1	0.2717579000000114	0.5684791536413876	2	0
17	15	2	0.1	0.6	2	0.5042750852550321	1	2	0.2702475000000959	0.5122313541359265	2	1
17	16	2	0.1	0.6	2	0.5693471563697569	1	2	0.3139922999998817	0.4973801382144759	1	1
17	17	2	0.1	0.6	2	0.5956733969844252	1	1	0.1358316000000741	0.5194172448200416	2	0
17	18	2	0.1	0.6	2	0.4553630689970156	1	1	0.412094000000252	0.5605466562265946	2	0
17	19	2	0.1	0.6	2	0.5032784019793876	1	2	0.5288460000001578	0.4275163165650884	1	1
17	20	2	0.1	0.6	2	0.597946363273866	1	2	0.4521951000001536	0.5171008608745109	2	1
18	1	1	0.5	0.5	1	0.4426931262673849	1	2	1.170865099999901	0.5647172391786613	1	0
18	2	1	0.5	0.5	1	0.4597733546730535	1	1	0.4523392999999487	0.5484987451596884	2	1
18	3	1	0.5	0.5	1	0.5662345607665096	1	1	0.2861693999998352	0.5942738767358713	2	1
18	4	1	0.5	0.5	1	0.4856134582332847	1	1	0.3732780999998795	0.5538730805816735	1	1
18	5	1	0.5	0.5	1	0.5745513584375936	1	2	0.3669804999999542	0.5284191344447664	2	0
18	6	1	0.5	0.5	1	0.4287139035400414	1	2	0.4678916999996545	0.4958338518365268	1	0
18	7	1	0.5	0.5	1	0.5958048784606189	1	1	0.4368991999999707	0.5550842952453651	1	1
18	8	1	0.5	0.5	1	0.460852859002504	1	2	0.7085270000002311	0.5538602662670344	2	0
18	9	1	0.5	0.5	1	0.4588129271947174	1	1	0.5114647000000332	0.4343927248033203	2	1
18	10	1	0.5	0.5	1	0.4774869012881873	1	1	0.2530165999996825	0.5522002289180816	1	1
18	11	1	0.5	0.5	1	0.5657657704475464	1	2	0.4115114999999605	0.4175482420257907	2	0
18	12	1	0.5	0.5	1	0.5985931241542167	1	1	0.3894000999998752	0.4629274562707658	1	1
18	13	1	0.5	0.5	1	0.4852320301494769	1	1	0.7486149999999725	0.4397664952943395	1	1
18	14	1	0.5	0.5	1	0.5903322356180599	1	2	0.5940751999996792	0.5162287510325185	1	0
18	15	1	0.5	0.5	1	0.5368522487702505	1	2	0.7607696000000033	0.4845164910438262	2	0
18	16	1	0.5	0.5	1	0.5356064985248787	1	1	0.5356768999999986	0.5422990354215812	2	1
18	17	1	0.5	0.5	1	0.4611632499638037	1	1	0.4415450999999848	0.5138965380338245	1	1
18	18	1	0.5	0.5	1	0.4111708262323694	1	1	0.4177419000002374	0.4720498367022186	1	1
18	19	1	0.5	0.5	1	0.5235344398844161	1	1	0.4577940999997736	0.4894668399157512	2	1
18	20	1	0.5	0.5	1	0.4900161633010999	1	1	0.1858828999997968	0.5378643981928913	2	1
19	1	2	0.1	0.6	2	0.5903811890616852	0	n/a	n/a	n/a	n/a	n/a
19	2	2	0.1	0.6	2	0.4629025086872073	1	2	0.01648150000028181	0.4463380198458118	1	1
19	3	2	0.1	0.6	2	0.4448033499915245	1	1	0.3676902000001974	0.448464773084975	2	0
19	4	2	0.1	0.6	2	0.5512028214697565	1	2	0.3069188999998005	0.4813481337220283	2	1
19	5	2	0.1	0.6	2	0.5438807841531382	1	2	0.1641402999998718	0.4542695096292371	1	1
19	6	2	0.1	0.6	2	0.4554403058075349	1	2	1.534814999999981	0.4929764207115306	2	1
19	7	2	0.1	0.6	2	0.5606393655073493	1	2	0.2171792999997706	0.438437936857073	2	1
19	8	2	0.1	0.6	2	0.4189764837622844	1	1	0.399395899999945	0.4588296598591581	2	0
19	9	2	0.1	0.6	2	0.5047922524264343	1	2	0.366965799999889	0.5180350635014358	2	1
19	10	2	0.1	0.6	2	0.4610609604384805	1	2	0.4489678999998432	0.4090783637559073	1	1
19	11	2	0.1	0.6	2	0.4261130681671496	1	2	0.3940026999998736	0.5947309221344736	1	1
19	12	2	0.1	0.6	2	0.5946293976724928	1	2	0.4098730999999134	0.4779492605304087	1	1
19	13	2	0.1	0.6	2	0.4837324059110402	1	2	0.4749658999999156	0.4415130225421755	2	1
19	14	2	0.1	0.6	2	0.4702631754801495	1	2	0.3816428000000087	0.5570109512208578	2	1
19	15	2	0.1	0.6	2	0.5315436124177972	1	1	0.2817516000000069	0.4300076376151108	2	0
19	16	2	0.1	0.6	2	0.4077437145556348	1	1	0.4675648999996156	0.5901680445776104	2	0
19	17	2	0.1	0.6	2	0.5489472861650231	1	1	0.2680639999998675	0.4466180305447998	1	0
19	18	2	0.1	0.6	2	0.5843162774012827	1	2	0.3109016000003066	0.5933200221094186	2	1
19	19	2	0.1	0.6	2	0.5062707648837588	1	1	0.4963936999997713	0.4581175344964706	2	0
19	20	2	0.1	0.6	2	0.5513994025163919	1	1	0.3237117999997281	0.4229879204195203	2	0
20	1	1	0.5	0.5	1	0.5436389892199285	1	1	0.9192643999999746	0.4769984079147542	1	1
20	2	1	0.5	0.5	1	0.4215652330444725	1	1	0.296462899999824	0.4993316242943751	2	1
20	3	1	0.5	0.5	1	0.5135912304007828	1	1	0.3908077999999477	0.5402048657035416	1	1
20	4	1	0.5	0.5	1	0.4032039354222763	1	1	0.2709666999999172	0.5977280570044075	2	1
20	5	1	0.5	0.5	1	0.5895544002023322	1	2	0.0004184999997960404	0.4281633190058414	2	0
20	6	1	0.5	0.5	1	0.405879639158788	1	2	0.255355100000088	0.483180667321447	2	0
20	7	1	0.5	0.5	1	0.4676726753056118	1	2	0.2488254999998389	0.4428362271631598	1	0
20	8	1	0.5	0.5	1	0.5710085322633039	1	2	0.3082856999999422	0.4970397456327106	1	0
20	9	1	0.5	0.5	1	0.5056371028441746	1	2	0.0004344999997556442	0.4535606724223731	1	0
20	10	1	0.5	0.5	1	0.5534838183810122	1	1	0.1150656999998318	0.5512766505619815	2	1
20	11	1	0.5	0.5	1	0.5134012121612181	1	1	0.2543805999998767	0.5577343413739436	2	1
20	12	1	0.5	0.5	1	0.4345246955759382	1	2	0.3269123999998556	0.5865318860695353	1	0
20	13	1	0.5	0.5	1	0.4285209730318809	1	2	0.2999219999996967	0.4852960649632705	2	0
20	14	1	0.5	0.5	1	0.4514527536475364	1	1	0.2220259999999143	0.5276438427120694	1	1
20	15	1	0.5	0.5	1	0.462804430941878	1	1	0.2846734999998262	0.5235347842028416	1	1
20	16	1	0.5	0.5	1	0.4824927093517016	1	1	0.4208438000000569	0.5686225890333294	2	1
20	17	1	0.5	0.5	1	0.4666991666250359	1	2	0.2465215999995962	0.4983589800303914	2	0
20	18	1	0.5	0.5	1	0.5121911067736606	1	2	0.1938814000000093	0.4771369836687243	1	0
20	19	1	0.5	0.5	1	0.575002365857514	1	2	0.2458881000002293	0.4673461194172847	1	0
20	20	1	0.5	0.5	1	0.5055261763746166	1	2	0.2981078999996498	0.4635395318534771	2	0
