blockNum	trialNum	condition	pWin1	pWin2	optimalResponse	preStimulusDelay	responded	response	rt	preFeedbackDelay	outcome	optimal
1	1	2	0.6	0.1	1	0.4315027097440701	0	n/a	n/a	n/a	n/a	n/a
1	2	2	0.6	0.1	1	0.4324797073815572	1	1	1.114816899999823	0.4455621336715318	1	1
1	3	2	0.6	0.1	1	0.4533252219635011	1	1	1.027726500000426	0.5800968930096125	1	1
1	4	2	0.6	0.1	1	0.5714055011945766	1	1	1.626920499999869	0.4771679477581634	2	1
1	5	2	0.6	0.1	1	0.4387069328703962	1	1	0.3376276999997572	0.4826180971638235	1	1
1	6	2	0.6	0.1	1	0.5801987843424268	1	1	1.231322800000271	0.5437927463467734	1	1
1	7	2	0.6	0.1	1	0.5983539044011225	1	2	0.7661623000003601	0.4781489383478907	2	0
1	8	2	0.6	0.1	1	0.4940670447895361	1	1	0.2484263999995164	0.5541586690608061	2	1
1	9	2	0.6	0.1	1	0.4982508157648542	1	1	0.575184000000263	0.5887982047071461	1	1
1	10	2	0.6	0.1	1	0.5506062823017071	1	2	1.034850099999858	0.4013891306209199	1	0
1	11	2	0.6	0.1	1	0.4714645196413042	1	1	0.9420486999997593	0.5565152299506674	2	1
1	12	2	0.6	0.1	1	0.560989561148199	1	1	0.5227193999999145	0.4290298788917535	1	1
1	13	2	0.6	0.1	1	0.5792037298422439	1	2	1.154578499999843	0.5593353371630992	2	0
1	14	2	0.6	0.1	1	0.5779672033123588	1	2	0.3664770000004864	0.5252017776535551	2	0
1	15	2	0.6	0.1	1	0.4235507109919109	1	2	0.3035681000001205	0.4510580226941075	2	0
1	16	2	0.6	0.1	1	0.5078190643199625	1	1	0.2469127000003937	0.4496709758115284	1	1
1	17	2	0.6	0.1	1	0.4965962853661602	1	1	0.5060153000003993	0.4508876695129692	1	1
1	18	2	0.6	0.1	1	0.5473048168056831	1	1	0.839583599999969	0.4525103653584851	2	1
1	19	2	0.6	0.1	1	0.5628286147627485	1	1	1.07072750000043	0.42834866632953	1	1
1	20	2	0.6	0.1	1	0.5471214431797982	1	1	0.8616308000000572	0.4182045663218822	2	1
2	1	1	0.5	0.5	1	0.5767593667742769	1	2	1.069916000000376	0.4734469093808799	1	0
2	2	1	0.5	0.5	1	0.5741803221077506	1	2	0.2834447000004729	0.5208383273165909	1	0
2	3	1	0.5	0.5	1	0.5585557833999498	1	2	0.4066149999998743	0.5941286031747648	1	0
2	4	1	0.5	0.5	1	0.4481874308629301	1	1	0.6713827000003221	0.5895074760942409	2	1
2	5	1	0.5	0.5	1	0.565780385225759	1	1	0.2597849000003407	0.4262461723124113	1	1
2	6	1	0.5	0.5	1	0.5812934999424043	1	2	0.3341497000001254	0.4074423185167249	2	0
2	7	1	0.5	0.5	1	0.539555237138632	1	2	0.2198708999994778	0.4847874428029447	1	0
2	8	1	0.5	0.5	1	0.4601024454972691	1	2	0.2378943000003346	0.5695135152850983	1	0
2	9	1	0.5	0.5	1	0.5695180454500881	1	2	0.3603825000000143	0.410115416447035	2	0
2	10	1	0.5	0.5	1	0.5331536520122913	1	1	0.6598023000005924	0.4946760733300912	1	1
2	11	1	0.5	0.5	1	0.4336323355113239	1	2	0.2951178999992408	0.5717421066292285	2	0
2	12	1	0.5	0.5	1	0.4807005932833452	1	2	0.2564445999996678	0.4908841759778979	1	0
2	13	1	0.5	0.5	1	0.4291386824568419	1	2	0.4726046999994651	0.5913152589187248	2	0
2	14	1	0.5	0.5	1	0.4222237720174119	1	2	0.6288203000003705	0.5447335604300088	1	0
2	15	1	0.5	0.5	1	0.4557110642815606	1	2	0.8249230999999781	0.411189551945703	2	0
2	16	1	0.5	0.5	1	0.5202676653614037	1	1	0.3429125000002387	0.4995284870457684	2	1
2	17	1	0.5	0.5	1	0.5756243035436109	1	2	0.5295248000002175	0.5508956265028423	1	0
2	18	1	0.5	0.5	1	0.5777933936591632	1	2	0.7724521999998615	0.4290592684118036	2	0
2	19	1	0.5	0.5	1	0.4621098536415126	1	2	0.7442756000000372	0.4217944863790742	1	0
2	20	1	0.5	0.5	1	0.5339605608346883	1	1	0.3024382000003243	0.4817095672134515	2	1
3	1	2	0.6	0.1	1	0.4336994115674567	1	2	0.5162283999998181	0.5187648432886469	2	0
3	2	2	0.6	0.1	1	0.5181479426008482	1	2	0.5778952000000572	0.5545729337928047	2	0
3	3	2	0.6	0.1	1	0.4020508427564923	1	2	0.3331657000007908	0.507683737754161	2	0
3	4	2	0.6	0.1	1	0.4966758176042925	1	2	0.1626738999993904	0.5177672787092775	2	0
3	5	2	0.6	0.1	1	0.4523219502639885	1	1	0.4411518999995678	0.5680832606906669	1	1
3	6	2	0.6	0.1	1	0.4356722542266045	1	1	0.3182787999994616	0.5470650914305626	1	1
3	7	2	0.6	0.1	1	0.5682358786314293	1	1	0.3750900000004549	0.5228922935987027	2	1
3	8	2	0.6	0.1	1	0.4907966452588496	1	1	0.3553314000000682	0.4462767240900439	1	1
3	9	2	0.6	0.1	1	0.4060392067438469	1	1	0.6419451000001573	0.5516800796876637	2	1
3	10	2	0.6	0.1	1	0.5112021190922523	1	1	0.2600705999993806	0.5102576044996834	2	1
3	11	2	0.6	0.1	1	0.4198652899451967	1	1	0.2487294000002294	0.4341073720506251	2	1
3	12	2	0.6	0.1	1	0.4341383548174594	1	1	0.5881918999994014	0.4812464785886864	1	1
3	13	2	0.6	0.1	1	0.426036028840935	1	2	1.38629469999978	0.5367593042630854	2	0
3	14	2	0.6	0.1	1	0.5169610189144692	1	1	0.7088384000007864	0.5278321574824976	2	1
3	15	2	0.6	0.1	1	0.5921549968748485	1	2	0.5692682999997487	0.502497634683456	2	0
3	16	2	0.6	0.1	1	0.4208288303496805	1	1	0.411596400000235	0.564292240964375	2	1
3	17	2	0.6	0.1	1	0.5810629959142524	1	1	0.2313048000005438	0.4139378201943087	1	1
3	18	2	0.6	0.1	1	0.4512748309536153	1	1	0.4547143999998298	0.4568538635237662	2	1
3	19	2	0.6	0.1	1	0.4620417847492225	1	2	0.4939723999996204	0.4266776498183003	2	0
3	20	2	0.6	0.1	1	0.4870237725269509	1	2	0.2943217000001823	0.4607468161663728	2	0
4	1	1	0.5	0.5	1	0.5883149496610531	1	1	0.5179695999995602	0.5358258365579227	1	1
4	2	1	0.5	0.5	1	0.5936937185896047	1	1	0.2551589999993666	0.5536079447725974	1	1
4	3	1	0.5	0.5	1	0.5370557854947274	1	2	0.2594787999996697	0.4247592700849629	1	0
4	4	1	0.5	0.5	1	0.4731351531947817	1	1	0.4632937999995193	0.5570387653734087	2	1
4	5	1	0.5	0.5	1	0.5337050891439674	1	1	0.5038416000006691	0.5410383414793662	1	1
4	6	1	0.5	0.5	1	0.4067517920557168	1	1	0.4742609999993874	0.5258245490310134	1	1
4	7	1	0.5	0.5	1	0.5030850219936387	1	2	0.4171805999994831	0.5329535316567935	1	0
4	8	1	0.5	0.5	1	0.5133434324127266	1	2	0.3966013999997813	0.5313767994486323	1	0
4	9	1	0.5	0.5	1	0.4368513198129794	1	1	0.4693836999995256	0.4780256560371247	2	1
4	10	1	0.5	0.5	1	0.5794072642379668	1	1	0.03126169999995909	0.4895138890895072	2	1
4	11	1	0.5	0.5	1	0.5327438390978161	1	1	0.5228876000001037	0.5450819574966375	2	1
4	12	1	0.5	0.5	1	0.4121336299917542	1	1	0.2830559000003632	0.5832285172423987	2	1
4	13	1	0.5	0.5	1	0.5884742794789676	1	2	0.3926367000003665	0.4241883617656979	1	0
4	14	1	0.5	0.5	1	0.5744834686654755	1	2	0.4838520000002973	0.5216957651170688	1	0
4	15	1	0.5	0.5	1	0.5939560571056802	1	1	0.7877619999999297	0.556278647152938	2	1
4	16	1	0.5	0.5	1	0.4766239703358416	1	2	0.2834970000003523	0.5659740446529329	1	0
4	17	1	0.5	0.5	1	0.4085770536775169	1	2	0.7518476999994164	0.5753229027970556	1	0
4	18	1	0.5	0.5	1	0.491572142905962	1	2	0.7917888000001767	0.4193744951901604	2	0
4	19	1	0.5	0.5	1	0.523071672848502	1	1	0.0005104000001665554	0.5476312208019385	2	1
4	20	1	0.5	0.5	1	0.5294847897473423	1	1	0.6313523999997415	0.4598137712428037	2	1
5	1	2	0.6	0.1	1	0.4753568142570542	0	n/a	n/a	n/a	n/a	n/a
5	2	2	0.6	0.1	1	0.5345698117290588	1	1	0.527439499999673	0.4454321080558706	1	1
5	3	2	0.6	0.1	1	0.4869337400059625	1	1	0.2704574999997931	0.5468326820566426	1	1
5	4	2	0.6	0.1	1	0.406960368080544	1	2	0.2888860999992175	0.5331412528909319	2	0
5	5	2	0.6	0.1	1	0.4183094336748687	1	1	0.2462098999994851	0.4090190685438206	2	1
5	6	2	0.6	0.1	1	0.4149549032181195	1	1	0.242754199999581	0.5416497684281221	1	1
5	7	2	0.6	0.1	1	0.5344002223941764	1	1	0.2613510999999562	0.4841189091701107	1	1
5	8	2	0.6	0.1	1	0.5171464793576002	1	1	0.7501235999998244	0.5875266287494291	2	1
5	9	2	0.6	0.1	1	0.415852907701889	1	1	0.4511172999991686	0.5839285637090886	2	1
5	10	2	0.6	0.1	1	0.4323921321627099	1	1	0.2739787999998953	0.4421878456970125	1	1
5	11	2	0.6	0.1	1	0.4003085940794989	1	2	0.309789500000079	0.5198520380140962	1	0
5	12	2	0.6	0.1	1	0.5397549261177936	1	2	0.630838500000209	0.4070327850166334	2	0
5	13	2	0.6	0.1	1	0.4493011946966316	1	1	0.1834010000002309	0.5440170845884096	1	1
5	14	2	0.6	0.1	1	0.4729755345471286	1	1	0.318619700000454	0.4521877195861401	2	1
5	15	2	0.6	0.1	1	0.5843365547837955	1	1	0.2519706999992195	0.5292718616476548	1	1
5	16	2	0.6	0.1	1	0.4532971612943942	1	2	0.4218822000002547	0.450483503341026	2	0
5	17	2	0.6	0.1	1	0.4769820829928109	1	1	0.5027792999999292	0.5283879891249256	1	1
5	18	2	0.6	0.1	1	0.4916395202330499	1	1	1.148402400000123	0.5231535487662409	1	1
5	19	2	0.6	0.1	1	0.5919904334677539	1	2	1.276305400000638	0.5770881534135761	2	0
5	20	2	0.6	0.1	1	0.4197353365310126	1	1	0.3444754000001922	0.4326172671348558	1	1
6	1	1	0.5	0.5	1	0.4262493884095768	1	2	0.5163134999993417	0.4409609521208498	2	0
6	2	1	0.5	0.5	1	0.4115790423365316	1	2	0.4106377000007342	0.537493009395477	1	0
6	3	1	0.5	0.5	1	0.4236990093870115	1	2	0.2232301000003645	0.527601377133977	2	0
6	4	1	0.5	0.5	1	0.490362943683602	1	1	0.3242010000003575	0.5218571435059057	1	1
6	5	1	0.5	0.5	1	0.483137412341063	1	1	0.4834765000005063	0.5305842896108007	1	1
6	6	1	0.5	0.5	1	0.4221471885984263	1	1	0.2872366000001421	0.5267483291867269	1	1
6	7	1	0.5	0.5	1	0.5781642454270265	1	1	0.2146155999998882	0.4187351714179454	2	1
6	8	1	0.5	0.5	1	0.4595917344916917	1	2	0.2786532999998599	0.5050144859573577	1	0
6	9	1	0.5	0.5	1	0.461529113824108	1	2	0.2540551000001869	0.4817766497073233	2	0
6	10	1	0.5	0.5	1	0.5867713686063297	1	1	0.387016699999549	0.5899047261714417	2	1
6	11	1	0.5	0.5	1	0.4905010258173212	1	1	0.01056269999935466	0.4791255817758001	1	1
6	12	1	0.5	0.5	1	0.5848399751291954	1	1	0.5292745000006107	0.4685974382889794	2	1
6	13	1	0.5	0.5	1	0.5919994780846273	1	1	0.2911156000000119	0.5096167854620109	1	1
6	14	1	0.5	0.5	1	0.4009661400350076	1	1	0.6904552999994849	0.5239399445344192	1	1
6	15	1	0.5	0.5	1	0.4774379410604653	1	1	0.5049793999996837	0.5639426473263036	2	1
6	16	1	0.5	0.5	1	0.4942466516367852	1	1	0.3859356000002663	0.5636088287214833	2	1
6	17	1	0.5	0.5	1	0.4410254480421381	1	1	0.0004017999999632593	0.4221970858083107	1	1
6	18	1	0.5	0.5	1	0.4741885156202426	1	2	0.4238462000002983	0.4673118029178405	1	0
6	19	1	0.5	0.5	1	0.4064367149437403	1	2	0.3422488000005615	0.4329841753267121	2	0
6	20	1	0.5	0.5	1	0.5774103496595218	1	1	0.6810331999995469	0.4726261356158277	1	1
7	1	2	0.6	0.1	1	0.4711402502479466	1	1	0.6677531999994244	0.4871135630054308	1	1
7	2	2	0.6	0.1	1	0.4768757542221802	1	1	0.4863453999996636	0.4159888771546526	1	1
7	3	2	0.6	0.1	1	0.5047887043018252	1	2	0.468053499999769	0.5236382735301851	2	0
7	4	2	0.6	0.1	1	0.5036305858983967	1	2	0.3879428999998709	0.5459015459185121	2	0
7	5	2	0.6	0.1	1	0.5520646638263773	1	1	0.4621667999999772	0.5305693538001488	1	1
7	6	2	0.6	0.1	1	0.5295480140423762	1	1	0.6414115000006859	0.5196494045741145	2	1
7	7	2	0.6	0.1	1	0.5186411089684728	1	1	0.281597099999999	0.5167003597069835	2	1
7	8	2	0.6	0.1	1	0.4117155953737741	1	1	0.2665428999998767	0.5773913957491899	1	1
7	9	2	0.6	0.1	1	0.4272898003455947	1	1	0.2984587999999349	0.4350619517184732	1	1
7	10	2	0.6	0.1	1	0.4614815010977817	1	2	0.4004901999996946	0.4167300197718964	1	0
7	11	2	0.6	0.1	1	0.5717820827483361	1	1	0.6611671999999089	0.4828972007823308	2	1
7	12	2	0.6	0.1	1	0.4422735179043014	1	2	1.345469300000332	0.4126499938427103	2	0
7	13	2	0.6	0.1	1	0.492394950564883	1	1	0.4128277999998318	0.502820160951909	1	1
7	14	2	0.6	0.1	1	0.5727247266060751	1	2	0.4466732999999294	0.4240281159289506	2	0
7	15	2	0.6	0.1	1	0.5354571261105577	1	2	0.521114199999829	0.5345341475833241	2	0
7	16	2	0.6	0.1	1	0.4068055184144436	1	1	0.2918288999999277	0.445096587842752	1	1
7	17	2	0.6	0.1	1	0.5737932377255177	1	1	0.3658232999996471	0.5618249096773954	2	1
7	18	2	0.6	0.1	1	0.5630975418700919	1	1	0.252735500000199	0.5489474156761801	1	1
7	19	2	0.6	0.1	1	0.5323992521498637	1	1	0.4953568000000814	0.4743546604201432	2	1
7	20	2	0.6	0.1	1	0.5247170998860587	1	2	0.2863762000006318	0.4764427521053519	2	0
8	1	1	0.5	0.5	1	0.5594181046181032	1	1	0.6457798000001276	0.4848998173230565	1	1
8	2	1	0.5	0.5	1	0.5197151489589893	1	2	0.2610840000006647	0.4638179338889802	1	0
8	3	1	0.5	0.5	1	0.5923495555071263	1	2	0.2750081000003775	0.5909021841192909	2	0
8	4	1	0.5	0.5	1	0.5202192035694595	1	1	0.2645668999994086	0.5197615790927146	1	1
8	5	1	0.5	0.5	1	0.561966275482233	1	1	0.2755993000000672	0.506843196787343	1	1
8	6	1	0.5	0.5	1	0.4676289570791328	1	2	0.2502602000004117	0.5143882861914588	1	0
8	7	1	0.5	0.5	1	0.4828935362444686	1	1	0.3858341000004657	0.4161351014290232	2	1
8	8	1	0.5	0.5	1	0.4263280403815914	1	1	0.308982499999729	0.4496870764126061	1	1
8	9	1	0.5	0.5	1	0.4893338964847168	1	2	0.3248422999995455	0.5243271179018522	1	0
8	10	1	0.5	0.5	1	0.5308874156695697	1	2	0.4683881999999358	0.4166340472766653	1	0
8	11	1	0.5	0.5	1	0.5017230035007487	1	1	0.4598777000001064	0.5406664885000232	2	1
8	12	1	0.5	0.5	1	0.5969965032774733	1	1	0.2037056999997731	0.5430601569127539	1	1
8	13	1	0.5	0.5	1	0.4171690266604142	1	1	0.5685393000003387	0.475589327265984	1	1
8	14	1	0.5	0.5	1	0.5807776851153512	1	2	0.7347554999996646	0.5328554484060739	2	0
8	15	1	0.5	0.5	1	0.5521615109477153	1	2	0.5686778000008417	0.5484250837206897	2	0
8	16	1	0.5	0.5	1	0.500071199019811	1	2	1.044671799999378	0.4381482908567288	2	0
8	17	1	0.5	0.5	1	0.4811475341548582	1	1	0.358542199999647	0.5008875741107307	1	1
8	18	1	0.5	0.5	1	0.4450101494560788	1	1	0.6602204000000711	0.4420900330205321	2	1
8	19	1	0.5	0.5	1	0.5121999196184251	1	1	0.4095498000006046	0.5516812882622792	2	1
8	20	1	0.5	0.5	1	0.4009729276119129	1	2	0.387678600000072	0.4609574005941157	2	0
9	1	2	0.1	0.6	2	0.5349090007795929	1	2	1.690334099999745	0.4841168212847092	1	1
9	2	2	0.1	0.6	2	0.5824038485923152	1	2	0.5482817000001887	0.4441981837133195	1	1
9	3	2	0.1	0.6	2	0.4594527010470114	1	1	0.3929817999996885	0.5558010320492397	2	0
9	4	2	0.1	0.6	2	0.4766585179539371	1	2	0.9837135999996462	0.4816838756697219	1	1
9	5	2	0.1	0.6	2	0.5379811604217984	1	2	0.4441188999999213	0.4346140632557902	2	1
9	6	2	0.1	0.6	2	0.4929917938834796	1	2	0.2351453999999649	0.5145330582681356	1	1
9	7	2	0.1	0.6	2	0.503439552823701	1	2	0.3516153000000486	0.5802928230256511	1	1
9	8	2	0.1	0.6	2	0.5110757700813267	1	2	0.4806509999998525	0.5613042335693442	2	1
9	9	2	0.1	0.6	2	0.4701795458156629	1	2	0.1999385999997685	0.4627462286501981	1	1
9	10	2	0.1	0.6	2	0.4624689432543104	1	2	0.504231200000504	0.4301938200205564	1	1
9	11	2	0.1	0.6	2	0.5318830223521084	1	1	0.4545174999993833	0.4373361787418796	2	0
9	12	2	0.1	0.6	2	0.5644602864089061	1	1	0.2766252999999779	0.5816223998421315	2	0
9	13	2	0.1	0.6	2	0.5346601622226277	1	1	0.3091960000001563	0.54091982985237	1	0
9	14	2	0.1	0.6	2	0.4058206410162513	1	2	0.4028459999999541	0.5898721438367104	1	1
9	15	2	0.1	0.6	2	0.5942263327295969	1	2	0.3129313000008551	0.5251320090509901	2	1
9	16	2	0.1	0.6	2	0.4870189435964241	1	2	0.1838410000000295	0.5960833340923632	1	1
9	17	2	0.1	0.6	2	0.4551435779544331	1	2	0.404150500000469	0.5735675788891417	2	1
9	18	2	0.1	0.6	2	0.4006302052290313	1	2	0.2601340999999593	0.4473037323679131	1	1
9	19	2	0.1	0.6	2	0.5410475182347783	1	2	0.4227341000005254	0.439745353031085	1	1
9	20	2	0.1	0.6	2	0.5073304259731447	1	2	1.403700800000479	0.4835256747467025	1	1
10	1	1	0.5	0.5	1	0.4064414256551775	1	1	0.8170443999997588	0.4848431689070083	1	1
10	2	1	0.5	0.5	1	0.5810840235298051	1	2	0.1893133999992642	0.4759756884332494	1	0
10	3	1	0.5	0.5	1	0.4358236433192836	1	1	0.2906425999999556	0.4062751167628343	2	1
10	4	1	0.5	0.5	1	0.4507489611485546	1	1	0.2951025000002119	0.4037486759194701	1	1
10	5	1	0.5	0.5	1	0.4558714634637687	1	1	0.3435234999997192	0.4588383247665422	2	1
10	6	1	0.5	0.5	1	0.4532539385846653	1	1	0.2787901000001511	0.5241803295796856	2	1
10	7	1	0.5	0.5	1	0.4844255327931553	1	2	0.6557033999997657	0.4900093589737801	1	0
10	8	1	0.5	0.5	1	0.5947541333629337	1	2	0.3686275000000023	0.5953442436326235	2	0
10	9	1	0.5	0.5	1	0.4877069626616741	1	2	0.2513670999996975	0.4345696714480094	1	0
10	10	1	0.5	0.5	1	0.5782950564639482	1	1	0.3801518000000215	0.5464288681163154	2	1
10	11	1	0.5	0.5	1	0.4399091502093158	1	2	0.2140998999993826	0.4600028926037351	2	0
10	12	1	0.5	0.5	1	0.4381071001411738	1	2	0.3140184999992925	0.557690540336007	2	0
10	13	1	0.5	0.5	1	0.4355726136193138	1	1	0.367946899999879	0.4547164343225331	1	1
10	14	1	0.5	0.5	1	0.5753272832350018	1	1	0.5303213999995933	0.5225906468238511	1	1
10	15	1	0.5	0.5	1	0.4575767669193022	1	1	0.7609294000003501	0.4629270142642438	2	1
10	16	1	0.5	0.5	1	0.5822720938996174	1	2	1.443093500000032	0.4575406715563377	1	0
10	17	1	0.5	0.5	1	0.4082348809831283	1	1	0.5721159999993688	0.5728799689370856	2	1
10	18	1	0.5	0.5	1	0.5070016185436784	1	1	0.329655399999865	0.4419764117382358	1	1
10	19	1	0.5	0.5	1	0.5302346182094079	1	1	0.6600484999999026	0.5444789695227618	1	1
10	20	1	0.5	0.5	1	0.4332975775607127	1	1	0.4001369000006889	0.5772688500963719	1	1
11	1	2	0.1	0.6	2	0.5292651400325173	1	1	0.4091653000004953	0.5579822213555014	2	0
11	2	2	0.1	0.6	2	0.4226058457542832	1	1	0.2257987000002686	0.5463463570392195	2	0
11	3	2	0.1	0.6	2	0.5229311016945921	1	1	0.2644696999996086	0.5694134632975816	2	0
11	4	2	0.1	0.6	2	0.4970401352494365	1	1	0.4527275000000373	0.5793586621761893	2	0
11	5	2	0.1	0.6	2	0.486139322507156	1	2	0.4226443999996263	0.4753132540221049	2	1
11	6	2	0.1	0.6	2	0.4567698133515781	1	2	0.412705100000494	0.5624195134074972	2	1
11	7	2	0.1	0.6	2	0.4589509490780421	1	2	0.4147379999994882	0.4860393911528988	1	1
11	8	2	0.1	0.6	2	0.4283109118096899	1	1	0.444623600000341	0.5556046052794067	2	0
11	9	2	0.1	0.6	2	0.4749500571181047	1	1	0.0004019000007247087	0.5453807671536547	2	0
11	10	2	0.1	0.6	2	0.5055968037003986	1	2	0.2218010999995386	0.4878315850783	1	1
11	11	2	0.1	0.6	2	0.4414838817550886	1	2	0.4058721999999761	0.5498142210461188	1	1
11	12	2	0.1	0.6	2	0.5485255538983131	1	2	0.6667138000002524	0.4850359383555001	1	1
11	13	2	0.1	0.6	2	0.5091547725437456	1	2	0.3898845000003348	0.5583532670816205	2	1
11	14	2	0.1	0.6	2	0.5670410384374852	1	2	0.3428605999997671	0.5867151154717679	2	1
11	15	2	0.1	0.6	2	0.502525654264121	1	2	0.5009186000006594	0.4924947332664034	2	1
11	16	2	0.1	0.6	2	0.4400951154110496	1	1	0.5420848000003389	0.424200100231919	2	0
11	17	2	0.1	0.6	2	0.5297803610163956	1	2	0.2465509999992719	0.5672473587706669	1	1
11	18	2	0.1	0.6	2	0.4610855082073052	1	2	0.3936270999993212	0.4112958593690321	2	1
11	19	2	0.1	0.6	2	0.5977013194677004	1	2	0.5699608000004446	0.4625591325877346	2	1
11	20	2	0.1	0.6	2	0.5511495108595651	1	1	0.5360185999998066	0.4968650707219212	2	0
12	1	1	0.5	0.5	1	0.4165719851211878	1	2	1.036409299999832	0.5856346622638985	1	0
12	2	1	0.5	0.5	1	0.5985684559873452	1	2	0.3578830999995262	0.5296937779211954	2	0
12	3	1	0.5	0.5	1	0.5454816027127183	1	2	0.5185868000007758	0.4677661080387522	1	0
12	4	1	0.5	0.5	1	0.432223590300985	1	2	0.3844631000001755	0.4623092244472599	2	0
12	5	1	0.5	0.5	1	0.4334143436990027	1	1	0.4266161000005013	0.5758349476371454	2	1
12	6	1	0.5	0.5	1	0.4391336000703329	1	1	0.2705562999999529	0.4272767891942693	2	1
12	7	1	0.5	0.5	1	0.5807089512056343	1	1	0.504226899999594	0.5482132665742649	2	1
12	8	1	0.5	0.5	1	0.5691865663501687	1	2	0.1454030000004423	0.5965725460005977	1	0
12	9	1	0.5	0.5	1	0.4545978128456001	1	2	0.3359163000004628	0.5574229861848083	1	0
12	10	1	0.5	0.5	1	0.4661880751015137	1	2	0.4069049999998242	0.5657181917929499	1	0
12	11	1	0.5	0.5	1	0.5860304883242735	1	1	1.437630899999931	0.5978924268071271	2	1
12	12	1	0.5	0.5	1	0.54051912270227	1	2	0.4262607000000571	0.5475537363023397	2	0
12	13	1	0.5	0.5	1	0.4915352626172836	1	2	0.3147977999997238	0.5135604626091137	1	0
12	14	1	0.5	0.5	1	0.4776249194693624	1	2	0.3692484000002878	0.5895896459678958	1	0
12	15	1	0.5	0.5	1	0.4319385499554798	1	2	0.3718333999995593	0.5114025923812	1	0
12	16	1	0.5	0.5	1	0.562124897915149	1	2	1.849005699999907	0.5352721810004154	2	0
12	17	1	0.5	0.5	1	0.4487452234701397	1	2	0.2701529000005394	0.4761288716130757	1	0
12	18	1	0.5	0.5	1	0.5244138311891129	1	2	0.2703671999997823	0.4544909122636755	1	0
12	19	1	0.5	0.5	1	0.4374841581483646	1	2	0.5415818000001309	0.5154457810236051	1	0
12	20	1	0.5	0.5	1	0.5005132800139456	1	1	0.3032611999997243	0.5674399881019007	2	1
13	1	2	0.6	0.1	1	0.4880935247749147	1	1	0.4353681000002325	0.45407540886022	1	1
13	2	2	0.6	0.1	1	0.4183989562186708	1	1	0.2848174999999173	0.5557986906758595	2	1
13	3	2	0.6	0.1	1	0.4789214850096183	1	1	0.2347743000000264	0.5520284524527088	1	1
13	4	2	0.6	0.1	1	0.4770625179567479	1	1	0.2611643999998705	0.5758279821063295	1	1
13	5	2	0.6	0.1	1	0.4298560688965727	1	1	1.430264999999963	0.5480811695098404	2	1
13	6	2	0.6	0.1	1	0.5392278753602094	1	1	0.2720472000000882	0.570484759489982	1	1
13	7	2	0.6	0.1	1	0.5268712521925659	1	1	0.2316882000004625	0.557944769529798	1	1
13	8	2	0.6	0.1	1	0.4456314151790203	1	2	0.2707441000002291	0.4131375485837367	2	0
13	9	2	0.6	0.1	1	0.571789010615949	1	2	0.1177569000001313	0.5945427456707578	2	0
13	10	2	0.6	0.1	1	0.5814669801936447	1	2	0.1893417999999656	0.4593111672778269	2	0
13	11	2	0.6	0.1	1	0.4086766221209456	1	1	0.2552998000001026	0.587249555272879	1	1
13	12	2	0.6	0.1	1	0.5683393853452914	1	1	0.2287240999994538	0.5516749911769748	1	1
13	13	2	0.6	0.1	1	0.4337930529498767	1	1	0.4286871000003885	0.5224444331729525	1	1
13	14	2	0.6	0.1	1	0.4407260896990593	1	1	0.3087053999997806	0.4477190091222231	1	1
13	15	2	0.6	0.1	1	0.4109061357386902	1	1	0.8921407000007093	0.4855608480470295	2	1
13	16	2	0.6	0.1	1	0.4219898106844043	1	1	0.3014931999996406	0.5995375248726187	1	1
13	17	2	0.6	0.1	1	0.5267694412953605	1	1	0.3037735999996585	0.5871411987776641	1	1
13	18	2	0.6	0.1	1	0.5606673623663709	1	1	0.8128474999994069	0.5177475045193944	2	1
13	19	2	0.6	0.1	1	0.45357071811709	1	1	0.1832180000001244	0.5173518594599925	2	1
13	20	2	0.6	0.1	1	0.5755041573202042	1	1	0.27399670000068	0.4454260513786868	2	1
14	1	1	0.5	0.5	1	0.5360127205093997	1	2	0.6990088000002288	0.5669948914862315	1	0
14	2	1	0.5	0.5	1	0.4693572441302651	1	2	0.2538702000001649	0.5394875454729547	1	0
14	3	1	0.5	0.5	1	0.4506239835801547	1	2	0.2473962000003667	0.4968019113703981	1	0
14	4	1	0.5	0.5	1	0.572551089217622	1	2	0.05055689999971946	0.5606821185466	2	0
14	5	1	0.5	0.5	1	0.4795575016681769	1	2	0.2097481000000698	0.5350937073654694	1	0
14	6	1	0.5	0.5	1	0.5264445336011467	1	2	0.2381021000001056	0.5675763022322797	1	0
14	7	1	0.5	0.5	1	0.5464372877435142	1	2	0.2262819999996282	0.5218604254304862	1	0
14	8	1	0.5	0.5	1	0.4901593831267481	1	1	0.383637699999781	0.4533873913204729	1	1
14	9	1	0.5	0.5	1	0.5884900567393639	1	2	0.3779807000000801	0.4312905133759629	2	0
14	10	1	0.5	0.5	1	0.4084903610385915	1	2	0.03530310000041936	0.5201703014647865	1	0
14	11	1	0.5	0.5	1	0.4784602712192167	1	2	0.23733220000031	0.4145114270741473	2	0
14	12	1	0.5	0.5	1	0.5675150552726622	1	2	0.4437838000003467	0.4679399630600374	2	0
14	13	1	0.5	0.5	1	0.5377242964168243	1	2	0.556285100000423	0.4957380750937517	2	0
14	14	1	0.5	0.5	1	0.4040170952208598	1	1	0.0004017000001113047	0.5101184739163099	2	1
14	15	1	0.5	0.5	1	0.4662357058948089	1	2	0.0004839999992327648	0.4047837493256231	1	0
14	16	1	0.5	0.5	1	0.42585736972874	1	2	0.2851352999996379	0.4088448519272292	1	0
14	17	1	0.5	0.5	1	0.5129490129280128	1	2	0.3468461000002208	0.4440312203830417	2	0
14	18	1	0.5	0.5	1	0.514480139079061	1	2	0.2174554999992324	0.4704716674069085	2	0
14	19	1	0.5	0.5	1	0.4042013096169252	1	2	0.3974599000002854	0.4153509933762592	2	0
14	20	1	0.5	0.5	1	0.4600114425319805	1	2	0.6840375000001586	0.5207998946384326	1	0
15	1	2	0.1	0.6	2	0.5011366070248459	1	1	0.612814599999183	0.5240708316979674	2	0
15	2	2	0.1	0.6	2	0.4208911680929262	1	2	0.0004023999999844818	0.4921320330483473	1	1
15	3	2	0.1	0.6	2	0.5557096456855142	1	2	0.5831429999998363	0.513183589907302	2	1
15	4	2	0.1	0.6	2	0.599373554845359	1	2	0.4401299999999537	0.5586741452892805	2	1
15	5	2	0.1	0.6	2	0.5129403034474938	1	2	0.2834173000001101	0.4596987088947889	1	1
15	6	2	0.1	0.6	2	0.4010471094267317	1	2	0.3055399999993824	0.4624186953963733	1	1
15	7	2	0.1	0.6	2	0.4248396376547205	1	1	0.3205926999999065	0.5187871842624268	2	0
15	8	2	0.1	0.6	2	0.41603816755867	1	2	0.4909233999997014	0.4109922140318204	2	1
15	9	2	0.1	0.6	2	0.5420799616743981	1	2	0.217819899999995	0.4210915070872287	2	1
15	10	2	0.1	0.6	2	0.5198932927214398	1	2	0.09851419999995414	0.4310693267366977	1	1
15	11	2	0.1	0.6	2	0.4803518727491052	1	2	0.3366497000006348	0.4330522054841586	1	1
15	12	2	0.1	0.6	2	0.5650897528174978	1	2	0.3069189999996524	0.4404464700878346	2	1
15	13	2	0.1	0.6	2	0.4063813399272656	1	2	0.4864481000004162	0.4665604779284116	2	1
15	14	2	0.1	0.6	2	0.4412746190944646	1	2	0.1474735000001601	0.5474811754680344	2	1
15	15	2	0.1	0.6	2	0.4326303186221547	1	2	0.07145840000066528	0.5589208783444773	1	1
15	16	2	0.1	0.6	2	0.5135817821774294	1	2	0.0004053000002386398	0.5526411973907077	1	1
15	17	2	0.1	0.6	2	0.501644284404093	1	1	0.2514366999994309	0.4981421024424925	1	0
15	18	2	0.1	0.6	2	0.4552387210464066	1	2	1.780950300000768	0.4378574826547015	2	1
15	19	2	0.1	0.6	2	0.511021647604688	1	2	0.837831499999993	0.5664432274803454	1	1
15	20	2	0.1	0.6	2	0.5405874272506882	1	2	0.2066709000000628	0.5439133710162077	1	1
16	1	2	0.1	0.6	2	0.5421764243945291	1	1	0.3887160999993284	0.4872597978083216	2	0
16	2	2	0.1	0.6	2	0.4886950514896181	1	2	0.3113419000001159	0.507203543114966	1	1
16	3	2	0.1	0.6	2	0.532700166916813	1	2	0.212197599999854	0.43890633807498	1	1
16	4	2	0.1	0.6	2	0.4858903809268406	1	2	0.27055399999972	0.4075077882148969	1	1
16	5	2	0.1	0.6	2	0.4635424542008779	1	1	0.2963234999997439	0.5844904932825504	1	0
16	6	2	0.1	0.6	2	0.4819759830520162	1	2	0.2635075999996843	0.5274485395086641	1	1
16	7	2	0.1	0.6	2	0.5006985330739614	1	1	0.1306635000000824	0.5685639674217675	1	0
16	8	2	0.1	0.6	2	0.4422583201078819	1	2	0.2924545999994734	0.4171429668978436	2	1
16	9	2	0.1	0.6	2	0.5872219511489112	1	1	0.3105544999998529	0.4064186986812699	2	0
16	10	2	0.1	0.6	2	0.5918559284078325	1	2	0.7268840000006094	0.4922959982767554	1	1
16	11	2	0.1	0.6	2	0.5775694678887464	1	1	0.1215276000002632	0.4572752064595086	2	0
16	12	2	0.1	0.6	2	0.5525057441024843	1	2	0.3734329999997499	0.4167504579716902	2	1
16	13	2	0.1	0.6	2	0.4227130081969892	1	2	0.0005959000000075321	0.532444163277495	2	1
16	14	2	0.1	0.6	2	0.4836333104706103	1	2	0.0004028000003017951	0.437913520743531	1	1
16	15	2	0.1	0.6	2	0.4241603298333544	1	1	0.0004016000002593501	0.5751528142552911	2	0
16	16	2	0.1	0.6	2	0.4084005208669074	1	1	0.3785522999996829	0.4104586839915489	2	0
16	17	2	0.1	0.6	2	0.5571928914056217	1	1	0.2773987999999008	0.5229809775644976	2	0
16	18	2	0.1	0.6	2	0.4949980167691681	1	1	0.2559104000001753	0.4710544672078023	2	0
16	19	2	0.1	0.6	2	0.4052779140663894	1	2	0.285231400000157	0.5344966524179425	1	1
16	20	2	0.1	0.6	2	0.4964183381695261	1	2	0.3528744000004735	0.543674484026617	1	1
17	1	1	0.5	0.5	1	0.4966771867312554	1	2	0.3542294999997466	0.4136766491603954	2	0
17	2	1	0.5	0.5	1	0.477484789168863	1	1	0.1995386999997208	0.5535078882252019	1	1
17	3	1	0.5	0.5	1	0.500240506345121	1	2	0.3773725999999442	0.4409798096696372	1	0
17	4	1	0.5	0.5	1	0.4367745926094103	1	1	0.3103455999998914	0.400489282724255	2	1
17	5	1	0.5	0.5	1	0.5596503579748985	1	2	0.3618649000000005	0.5737057803182268	1	0
17	6	1	0.5	0.5	1	0.4916971669848254	1	2	0.7046027999995204	0.5160406779096061	1	0
17	7	1	0.5	0.5	1	0.5092476974809819	1	1	0.5693656000003102	0.5338292662433124	1	1
17	8	1	0.5	0.5	1	0.5979690278207469	1	1	1.245370399999956	0.5231044680670248	1	1
17	9	1	0.5	0.5	1	0.4602212642534389	1	2	0.2307559000000765	0.4296229659349902	2	0
17	10	1	0.5	0.5	1	0.4682367832681936	1	2	0.2263020000000324	0.580916611704538	1	0
17	11	1	0.5	0.5	1	0.4689126613224923	1	2	0.3770574000000124	0.5771871573452141	2	0
17	12	1	0.5	0.5	1	0.4713693233107932	1	2	0.0004085999999006162	0.495898714961704	2	0
17	13	1	0.5	0.5	1	0.5934831460249709	1	1	0.3853251999998974	0.5808057626866934	1	1
17	14	1	0.5	0.5	1	0.4588763667609247	1	1	0.329805800000031	0.4702035628754666	2	1
17	15	1	0.5	0.5	1	0.4889743826256771	1	2	0.4065661000004184	0.4724169770564925	2	0
17	16	1	0.5	0.5	1	0.5666167415334449	1	2	0.3178898000005574	0.533550361244284	1	0
17	17	1	0.5	0.5	1	0.54385416706569	1	2	0.8592683000006218	0.4103091519398916	2	0
17	18	1	0.5	0.5	1	0.5197299899845095	1	1	0.2271503000001758	0.5608856744247699	2	1
17	19	1	0.5	0.5	1	0.5719789353596395	1	2	0.4361808000003293	0.4230440806767179	1	0
17	20	1	0.5	0.5	1	0.491116690552339	1	2	0.6943201999993107	0.5877653118079658	2	0
18	1	1	0.5	0.5	1	0.531508558601186	1	1	0.6962866999992912	0.4512062251084896	1	1
18	2	1	0.5	0.5	1	0.5032879257561479	1	1	0.3610214000000269	0.5744821775530389	2	1
18	3	1	0.5	0.5	1	0.5948098078966532	1	1	0.2949176000001899	0.405644871833746	1	1
18	4	1	0.5	0.5	1	0.5874048788762882	1	2	0.3299334000003	0.456239867399298	2	0
18	5	1	0.5	0.5	1	0.5513763542871888	1	2	0.2672608000002583	0.4760190806428166	1	0
18	6	1	0.5	0.5	1	0.493584421803295	1	1	0.2945973000005324	0.5114420037234072	2	1
18	7	1	0.5	0.5	1	0.5400424492991434	1	1	0.1951130999996167	0.5934685061372698	1	1
18	8	1	0.5	0.5	1	0.5356654681185107	1	2	0.4256531999999424	0.4258134611200738	1	0
18	9	1	0.5	0.5	1	0.5772001908036395	1	1	0.3473819000000731	0.4783361139442108	2	1
18	10	1	0.5	0.5	1	0.4561516415095382	1	1	0.0004028000003017951	0.5610402688372241	2	1
18	11	1	0.5	0.5	1	0.4924660759756859	1	1	0.2624968000000081	0.5279780281627263	2	1
18	12	1	0.5	0.5	1	0.5664845663352709	1	1	0.0004361000001154025	0.4423477992922235	1	1
18	13	1	0.5	0.5	1	0.4646754539898106	1	2	0.2096867999998722	0.5686630710968646	1	0
18	14	1	0.5	0.5	1	0.4535052120653646	1	1	0.2566675999996733	0.5185582777048195	2	1
18	15	1	0.5	0.5	1	0.5907042800744839	1	2	0.3829208999995899	0.4316431912620081	2	0
18	16	1	0.5	0.5	1	0.4876680464886434	1	2	0.0003984000004493282	0.4001057101739387	2	0
18	17	1	0.5	0.5	1	0.4443701412611084	1	2	0.3997167999996236	0.5174535108462919	1	0
18	18	1	0.5	0.5	1	0.4595557017098544	1	2	0.4860230000003867	0.5466641500865346	1	0
18	19	1	0.5	0.5	1	0.5330124652239008	1	1	0.1613978000004863	0.4140198014458789	2	1
18	20	1	0.5	0.5	1	0.4589715623827855	1	2	0.3361749000005148	0.5108391333983801	1	0
19	1	2	0.6	0.1	1	0.4381165909175216	1	1	0.3998716000005516	0.4325061001452447	1	1
19	2	2	0.6	0.1	1	0.5374438661722942	1	1	0.2596326000002591	0.4933202895519549	2	1
19	3	2	0.6	0.1	1	0.494935288695929	1	1	0.1810652000003756	0.4286888232535506	1	1
19	4	2	0.6	0.1	1	0.4519116173309621	1	2	0.2425780999992639	0.468869390290871	2	0
19	5	2	0.6	0.1	1	0.5266547352805673	1	2	0.233715200000006	0.5526702806805668	2	0
19	6	2	0.6	0.1	1	0.5743855101077402	1	1	0.4160552000003008	0.5244741396440726	1	1
19	7	2	0.6	0.1	1	0.4242543699412866	1	1	0.58516950000012	0.5551562841149611	1	1
19	8	2	0.6	0.1	1	0.5701013940287967	1	2	0.9007816000003004	0.4163812795162379	2	0
19	9	2	0.6	0.1	1	0.4708312248269617	1	1	0.2585602999997718	0.5020716007880993	2	1
19	10	2	0.6	0.1	1	0.4887647074540453	1	1	0.3045539999993707	0.4775923607433117	2	1
19	11	2	0.6	0.1	1	0.5439409016639335	1	1	0.2860114999994039	0.4264220845373342	1	1
19	12	2	0.6	0.1	1	0.4702871418541583	1	1	0.360398200000418	0.4210165489867208	2	1
19	13	2	0.6	0.1	1	0.4162937043133637	1	2	0.01204820000020845	0.4446613186936169	2	0
19	14	2	0.6	0.1	1	0.4049874651078081	1	2	0.0004002999994554557	0.5682790630154447	1	0
19	15	2	0.6	0.1	1	0.4782557783143181	1	1	0.3209286000001157	0.4095746332353303	1	1
19	16	2	0.6	0.1	1	0.4661342169865275	1	1	0.23425270000007	0.553123457562832	1	1
19	17	2	0.6	0.1	1	0.5608471156096521	1	2	0.4873564999998052	0.5446209867491349	2	0
19	18	2	0.6	0.1	1	0.4328395036757229	1	1	0.2287315000003218	0.4286181986525294	2	1
19	19	2	0.6	0.1	1	0.4922194608833529	1	1	0.2614333999999872	0.5088072350995492	2	1
19	20	2	0.6	0.1	1	0.5831598686462034	1	1	0.1241634999996677	0.4691110771482229	2	1
20	1	1	0.5	0.5	1	0.5237744140556375	1	2	0.5383716000005734	0.4854406272262439	1	0
20	2	1	0.5	0.5	1	0.5318518240869052	1	2	0.246070499999405	0.4912357489383918	2	0
20	3	1	0.5	0.5	1	0.5068229328754538	1	1	0.0004660999993575388	0.4922305432541164	2	1
20	4	1	0.5	0.5	1	0.5804939502340754	1	2	0.2449368000006871	0.4782744991522077	1	0
20	5	1	0.5	0.5	1	0.5943264739477988	1	2	0.3283928999999262	0.5684098653019024	1	0
20	6	1	0.5	0.5	1	0.5392782295966533	1	2	0.3215982000001532	0.4860298764476956	1	0
20	7	1	0.5	0.5	1	0.5351641670381917	1	2	0.3192029000001639	0.4011831181291521	1	0
20	8	1	0.5	0.5	1	0.5481807956798227	1	2	0.2402526000005309	0.4973960787484053	2	0
20	9	1	0.5	0.5	1	0.4873969516618084	1	2	0.0004024999998364365	0.5920365349477179	2	0
20	10	1	0.5	0.5	1	0.4722870775625115	1	1	0.5655539999997927	0.4791735795656065	2	1
20	11	1	0.5	0.5	1	0.4812841307252736	1	1	0.2692828999997801	0.511617218339971	2	1
20	12	1	0.5	0.5	1	0.4901846535357058	1	2	0.3668666000003213	0.5151930961788033	1	0
20	13	1	0.5	0.5	1	0.4120476491844444	1	2	0.3301644999992277	0.493534860891735	2	0
20	14	1	0.5	0.5	1	0.529838233408657	1	2	0.365026399999806	0.4616770883063222	1	0
20	15	1	0.5	0.5	1	0.5506697054416214	1	2	0.6284851999998864	0.5355128780529669	2	0
20	16	1	0.5	0.5	1	0.4089610491083618	1	1	0.000405700000555953	0.5339619347559699	1	1
20	17	1	0.5	0.5	1	0.4736043587494582	1	2	0.4710454999994909	0.5520609029176367	1	0
20	18	1	0.5	0.5	1	0.5180574001410487	1	2	0.561055000000124	0.5574677666534311	1	0
20	19	1	0.5	0.5	1	0.471459944280757	1	2	0.5759114000002228	0.4450728664545713	2	0
20	20	1	0.5	0.5	1	0.4816885706271489	1	2	0.2610945000005813	0.4373660013937671	2	0
