blockNum	trialNum	condition	pWin1	pWin2	optimalResponse	preStimulusDelay	responded	response	rt	preFeedbackDelay	outcome	optimal
1	1	2	0.6	0.1	1	0.5150157829739834	0	n/a	n/a	n/a	n/a	n/a
1	2	2	0.6	0.1	1	0.4545513735501186	1	1	0.550418599974364	0.5687779379417317	2	1
1	3	2	0.6	0.1	1	0.436038927196705	1	1	0.3509416999295354	0.5213895688550756	1	1
1	4	2	0.6	0.1	1	0.5074041928966289	1	1	0.3427488999441266	0.4552634978798344	1	1
1	5	2	0.6	0.1	1	0.4587580694476417	1	1	0.3252059000078589	0.4517531951770408	1	1
1	6	2	0.6	0.1	1	0.5903589616394145	1	1	0.2641328999307007	0.4288217218963613	1	1
1	7	2	0.6	0.1	1	0.4427151822468085	1	1	0.2922543999738991	0.4368358472732222	2	1
1	8	2	0.6	0.1	1	0.5769338410731848	1	1	0.3181541999801993	0.4504742685302084	2	1
1	9	2	0.6	0.1	1	0.5658171742390692	1	1	0.6067105999682099	0.5816848004529312	2	1
1	10	2	0.6	0.1	1	0.5037002485352789	1	2	0.9948703000554815	0.5602804903067333	2	0
1	11	2	0.6	0.1	1	0.4027398614565391	1	1	0.3221792000113055	0.4653038802503584	1	1
1	12	2	0.6	0.1	1	0.5968320093851203	1	1	0.3375501000555232	0.5710837222682832	2	1
1	13	2	0.6	0.1	1	0.5408602805872227	1	2	0.2978959999745712	0.4005129152530054	2	0
1	14	2	0.6	0.1	1	0.5500828715739755	1	2	0.2367370999418199	0.4427612484027473	2	0
1	15	2	0.6	0.1	1	0.5546536711162048	1	1	0.131786199985072	0.5172934549759968	1	1
1	16	2	0.6	0.1	1	0.5121336830908729	1	1	0.3004987000022084	0.4572252705017366	1	1
1	17	2	0.6	0.1	1	0.518535636077979	1	1	0.2515918000135571	0.4365395082321527	1	1
1	18	2	0.6	0.1	1	0.4299031370864045	1	1	0.3546347999945283	0.592452694146036	2	1
1	19	2	0.6	0.1	1	0.4225359959035948	1	1	0.169869999983348	0.4660030403623614	1	1
1	20	2	0.6	0.1	1	0.5220286500003268	1	1	0.3261118000373244	0.4381805861553584	2	1
2	1	2	0.1	0.6	2	0.4721505763763585	1	2	0.3272101000184193	0.4996872853783683	1	1
2	2	2	0.1	0.6	2	0.5372168069280469	1	2	0.2447486999444664	0.5610229155081873	1	1
2	3	2	0.1	0.6	2	0.5287699102034348	1	2	0.2634083000011742	0.4428282379625875	1	1
2	4	2	0.1	0.6	2	0.599174429209169	1	2	0.2335505000082776	0.5268400506104217	2	1
2	5	2	0.1	0.6	2	0.4817591455521068	1	2	0.329516900004819	0.416136217468787	2	1
2	6	2	0.1	0.6	2	0.5937029259923476	1	2	0.1338383000111207	0.4780233761503108	2	1
2	7	2	0.1	0.6	2	0.4761202986821171	1	2	0.2771688000066206	0.5003293158030766	2	1
2	8	2	0.1	0.6	2	0.4971231822209171	1	2	0.3284545000642538	0.4898507999411369	2	1
2	9	2	0.1	0.6	2	0.4087277113670242	1	1	0.2645160999381915	0.5491031398560599	2	0
2	10	2	0.1	0.6	2	0.4994413736823304	1	1	0.1494234000565484	0.5833423489740606	2	0
2	11	2	0.1	0.6	2	0.5269137594522074	1	2	0.1699794000014663	0.4048090909245667	1	1
2	12	2	0.1	0.6	2	0.513952622691332	1	2	0.3888189999852329	0.4205236346817466	2	1
2	13	2	0.1	0.6	2	0.5183106763432456	1	2	0.4017647000728175	0.5709452415285862	1	1
2	14	2	0.1	0.6	2	0.4592467018109297	1	2	0.168684900039807	0.4783355481223256	1	1
2	15	2	0.1	0.6	2	0.589503741510541	1	2	0.3507534000091255	0.4659219978754068	1	1
2	16	2	0.1	0.6	2	0.59656198915877	1	2	0.2682190000778064	0.4300489527129806	1	1
2	17	2	0.1	0.6	2	0.5057191402707749	1	2	0.1872022999450564	0.5126345966865534	2	1
2	18	2	0.1	0.6	2	0.5578593556363229	1	2	0.7721402999013662	0.5946496744377376	2	1
2	19	2	0.1	0.6	2	0.5245316008637249	1	2	0.2217287999810651	0.4396080928817355	2	1
2	20	2	0.1	0.6	2	0.5984340119053861	1	2	0.3106860000407323	0.5957310730661007	2	1
3	1	1	0.5	0.5	1	0.5559020284932811	1	1	0.4133899000007659	0.5853519923951569	2	1
3	2	1	0.5	0.5	1	0.470857765799842	1	1	0.2755411000689492	0.5841548915786337	2	1
3	3	1	0.5	0.5	1	0.4804692385604188	1	1	0.3821570000145584	0.5437762568605663	2	1
3	4	1	0.5	0.5	1	0.4358651345670903	1	1	0.2896835999563336	0.5318573101118497	2	1
3	5	1	0.5	0.5	1	0.5685968094157756	1	1	0.2278758999891579	0.4690624009830766	1	1
3	6	1	0.5	0.5	1	0.4337655741898941	1	2	0.2824921000283211	0.4147745756674225	2	0
3	7	1	0.5	0.5	1	0.5176714921979867	1	2	0.2670152999926358	0.4309659642847136	1	0
3	8	1	0.5	0.5	1	0.5554101858774401	1	2	0.03701479989103973	0.5837825355603337	1	0
3	9	1	0.5	0.5	1	0.5973360525394448	1	2	0.2642978000221774	0.4346698147328594	2	0
3	10	1	0.5	0.5	1	0.4496078129347645	1	2	0.2912022999953479	0.435440920006324	2	0
3	11	1	0.5	0.5	1	0.4315118606635567	1	2	0.3001604001037776	0.5749064586252647	1	0
3	12	1	0.5	0.5	1	0.5806766947144367	1	2	0.29324359993916	0.4900713678655713	1	0
3	13	1	0.5	0.5	1	0.5563162445620298	1	2	0.2501400000182912	0.4849827499461202	2	0
3	14	1	0.5	0.5	1	0.4009221204987304	1	2	0.3045868999324739	0.5933248171947817	1	0
3	15	1	0.5	0.5	1	0.4167923447166375	1	2	0.3042343000415713	0.420276215770955	1	0
3	16	1	0.5	0.5	1	0.5818842613838687	1	2	0.2643747000256553	0.5113720139137442	1	0
3	17	1	0.5	0.5	1	0.5923297923106946	1	2	0.3051768000004813	0.4453954734460821	1	0
3	18	1	0.5	0.5	1	0.4987427527056275	1	2	0.2836344999959692	0.4952978848918994	2	0
3	19	1	0.5	0.5	1	0.4732726926049177	1	2	0.3258448999840766	0.4245583392491686	2	0
3	20	1	0.5	0.5	1	0.5717818976657438	1	2	0.2603324999799952	0.4971289320275846	2	0
4	1	1	0.5	0.5	1	0.5568100948570236	1	1	0.6905220000771806	0.5093783810314743	2	1
4	2	1	0.5	0.5	1	0.4742047340859922	1	1	0.2402757999952883	0.5459629118561283	1	1
4	3	1	0.5	0.5	1	0.5586327517847316	1	1	0.2844752999953926	0.4475590981723984	2	1
4	4	1	0.5	0.5	1	0.4620233996819331	1	1	0.2576741999946535	0.4946080775742514	1	1
4	5	1	0.5	0.5	1	0.5985597832087108	1	1	0.2755670000333339	0.4009208246177052	2	1
4	6	1	0.5	0.5	1	0.471389695298021	1	2	0.3311870000325143	0.4830429674702047	2	0
4	7	1	0.5	0.5	1	0.5786840145564238	1	2	0.3247557999566197	0.4750307050795964	2	0
4	8	1	0.5	0.5	1	0.4314403572866232	1	2	0.2924518999643624	0.4869780529584433	1	0
4	9	1	0.5	0.5	1	0.5331538650814091	1	2	0.2139678999083117	0.4422759233632736	1	0
4	10	1	0.5	0.5	1	0.478717383229428	1	2	0.2412118000211194	0.4110984088432552	2	0
4	11	1	0.5	0.5	1	0.480627646578539	1	2	0.324161900090985	0.4339832629184361	2	0
4	12	1	0.5	0.5	1	0.5232051420446829	1	2	0.2847131000598893	0.5299866296597737	2	0
4	13	1	0.5	0.5	1	0.4726023680436832	1	1	0.3001634000102058	0.52519876088769	1	1
4	14	1	0.5	0.5	1	0.5386765612269164	1	1	0.3789484000299126	0.5460565574280986	2	1
4	15	1	0.5	0.5	1	0.4795584057610816	1	1	0.3397565999766812	0.4804123453522585	2	1
4	16	1	0.5	0.5	1	0.5139752823259364	1	1	0.338224699953571	0.4961392839124982	2	1
4	17	1	0.5	0.5	1	0.4311794794041928	1	1	0.1278281999984756	0.470750414960529	2	1
4	18	1	0.5	0.5	1	0.5790278889215077	1	1	0.2270189999835566	0.4774666122264883	1	1
4	19	1	0.5	0.5	1	0.4448549661512335	1	1	0.2755672000348568	0.5160288286428881	1	1
4	20	1	0.5	0.5	1	0.4096738756606343	1	1	0.3888443999458104	0.4822985218405533	1	1
5	1	2	0.6	0.1	1	0.5328219264707686	1	1	0.4454954999964684	0.5125638376844219	1	1
5	2	2	0.6	0.1	1	0.4969472267905524	1	1	0.2398135999683291	0.4740061351262213	1	1
5	3	2	0.6	0.1	1	0.4598262638644022	1	1	0.2785127999959514	0.5682672090506645	1	1
5	4	2	0.6	0.1	1	0.4112761615724326	1	1	0.2288352000759915	0.5956040032925438	1	1
5	5	2	0.6	0.1	1	0.4946950431675262	1	1	0.2768963999114931	0.4306473388519194	2	1
5	6	2	0.6	0.1	1	0.4509324701966406	1	1	0.03153290005866438	0.497864169343024	2	1
5	7	2	0.6	0.1	1	0.5473453223121707	1	1	0.287027099984698	0.5262854169496232	1	1
5	8	2	0.6	0.1	1	0.5141631581048598	1	1	0.4215865000151098	0.5328838984322001	1	1
5	9	2	0.6	0.1	1	0.487416215155034	1	1	0.2528151000151411	0.4269610508293197	1	1
5	10	2	0.6	0.1	1	0.4760690303980441	1	1	0.2668186000082642	0.4813250448224956	1	1
5	11	2	0.6	0.1	1	0.4807808229530287	1	1	0.4762489999411628	0.4370582576461565	1	1
5	12	2	0.6	0.1	1	0.4938174951973376	1	1	0.3058233000338078	0.478979813467113	2	1
5	13	2	0.6	0.1	1	0.4074673036242762	1	1	0.293364500044845	0.4716359844275664	1	1
5	14	2	0.6	0.1	1	0.4168873124080785	1	1	0.3591300999978557	0.5740325291810591	1	1
5	15	2	0.6	0.1	1	0.5667525572624961	1	1	0.3165705000283197	0.4291253687411717	2	1
5	16	2	0.6	0.1	1	0.4955541952747582	1	1	0.1715680999914184	0.4758434158197641	2	1
5	17	2	0.6	0.1	1	0.5456031059887635	1	1	0.1701332998927683	0.4862978312428412	2	1
5	18	2	0.6	0.1	1	0.5576238331006256	1	1	0.2248722999356687	0.5059871560506518	1	1
5	19	2	0.6	0.1	1	0.4376623514226125	1	1	0.3416354000801221	0.4881130712359611	2	1
5	20	2	0.6	0.1	1	0.5847346625585005	1	1	0.3505126000382006	0.424023754543699	1	1
6	1	2	0.6	0.1	1	0.4779455993621936	1	1	0.509669900056906	0.4242342580772477	2	1
6	2	2	0.6	0.1	1	0.4861003221372218	1	1	0.2656744999112561	0.4419816894334629	2	1
6	3	2	0.6	0.1	1	0.4217332007336551	1	1	0.0003995000151917338	0.4140226679035208	2	1
6	4	2	0.6	0.1	1	0.452972892088816	1	1	0.1895897999638692	0.495370718986506	2	1
6	5	2	0.6	0.1	1	0.4499318697134789	1	1	0.1821771999821067	0.5043049668058334	2	1
6	6	2	0.6	0.1	1	0.4673442608362737	1	2	0.2153475999366492	0.4182042626847333	2	0
6	7	2	0.6	0.1	1	0.5446139307978862	1	2	0.225048299995251	0.4147711038746693	2	0
6	8	2	0.6	0.1	1	0.5198028594261022	1	2	0.2317368000512943	0.4116859639175547	1	0
6	9	2	0.6	0.1	1	0.5126876293812704	1	2	0.3548737999517471	0.5670293180704217	2	0
6	10	2	0.6	0.1	1	0.5591091785881548	1	2	0.2521655999589711	0.4180484453814864	2	0
6	11	2	0.6	0.1	1	0.4902911036549709	1	1	0.66872139996849	0.5677791137341117	2	1
6	12	2	0.6	0.1	1	0.4140078336432619	1	2	0.3067184999817982	0.5450843048390559	2	0
6	13	2	0.6	0.1	1	0.458336113793549	1	2	0.2241901999805123	0.5002506217208489	2	0
6	14	2	0.6	0.1	1	0.5460256777537573	1	2	0.2025786000303924	0.4344124572720308	2	0
6	15	2	0.6	0.1	1	0.5830675308867319	1	1	0.2246556000318378	0.4989318319701685	2	1
6	16	2	0.6	0.1	1	0.519057200596548	1	2	0.2262267000041902	0.4115824106295496	2	0
6	17	2	0.6	0.1	1	0.5120156405566336	1	2	0.3210836000507697	0.5055516048824354	2	0
6	18	2	0.6	0.1	1	0.4654084918183011	1	1	0.2559787000063807	0.4694972463288744	1	1
6	19	2	0.6	0.1	1	0.435389191268243	1	1	0.3212078999495134	0.4105190256427065	2	1
6	20	2	0.6	0.1	1	0.4651090806489852	1	2	0.2567639000480995	0.5934710441141428	2	0
7	1	1	0.5	0.5	1	0.57005002913836	1	1	0.4608966000378132	0.5795780506020691	2	1
7	2	1	0.5	0.5	1	0.5207399366427986	1	2	0.2892432999797165	0.4102608053685966	1	0
7	3	1	0.5	0.5	1	0.4761484120931879	1	2	0.3115497999824584	0.5957510615059188	1	0
7	4	1	0.5	0.5	1	0.5575509849328607	1	2	0.2854457000503317	0.4879944930705161	2	0
7	5	1	0.5	0.5	1	0.5581918784724678	1	1	0.4066399000585079	0.5145764521597415	2	1
7	6	1	0.5	0.5	1	0.5696570943683197	1	2	0.4059916000114754	0.4419667140019113	1	0
7	7	1	0.5	0.5	1	0.4301059012475608	1	2	0.368082599947229	0.4197338727991352	1	0
7	8	1	0.5	0.5	1	0.4337260704938898	1	2	0.3739074999466538	0.5373962358108781	1	0
7	9	1	0.5	0.5	1	0.4054882598579713	1	2	0.3227368999505416	0.596710085216872	2	0
7	10	1	0.5	0.5	1	0.4580422052417748	1	1	0.3711928999982774	0.413538562916739	1	1
7	11	1	0.5	0.5	1	0.5132167346162801	1	1	0.3456739000976086	0.5535313755065547	2	1
7	12	1	0.5	0.5	1	0.4799480870230266	1	2	0.3976489000488073	0.465393804223488	1	0
7	13	1	0.5	0.5	1	0.5920467634149799	1	2	0.2822276999941096	0.5459466900834551	1	0
7	14	1	0.5	0.5	1	0.5001076654542103	1	2	0.3149357000365853	0.4876008185791508	1	0
7	15	1	0.5	0.5	1	0.4993641558352979	1	2	0.3094522000756115	0.4488204871543434	2	0
7	16	1	0.5	0.5	1	0.5499913645712704	1	1	0.2894875999772921	0.5511181879620753	2	1
7	17	1	0.5	0.5	1	0.5613693070037821	1	2	0.2612384000094607	0.5856651404582426	1	0
7	18	1	0.5	0.5	1	0.5387317677799397	1	2	0.1552983000874519	0.5823879570275107	1	0
7	19	1	0.5	0.5	1	0.4132385021105489	1	2	0.3148000000510365	0.4039760040369318	1	0
7	20	1	0.5	0.5	1	0.5335113929206132	1	2	0.2523405998945236	0.5924535863712095	1	0
8	1	1	0.5	0.5	1	0.4907573855489756	1	2	0.3558436000021175	0.4554288540602437	2	0
8	2	1	0.5	0.5	1	0.4199866334214356	1	1	0.2870500999270007	0.5695654025510553	2	1
8	3	1	0.5	0.5	1	0.5437931645931754	1	2	0.2295221000676975	0.4053596726877307	2	0
8	4	1	0.5	0.5	1	0.5592844079718494	1	1	0.261555099976249	0.5875703557120289	2	1
8	5	1	0.5	0.5	1	0.5069232451778042	1	2	0.3224908999400213	0.5068328966263609	2	0
8	6	1	0.5	0.5	1	0.4791399080803908	1	1	0.3079577999887988	0.4081232819138781	2	1
8	7	1	0.5	0.5	1	0.4652490617593652	1	2	0.3617677999427542	0.5342011683229883	2	0
8	8	1	0.5	0.5	1	0.5488884239631348	1	2	0.211963800014928	0.5284909926377653	2	0
8	9	1	0.5	0.5	1	0.4450532480465668	1	1	0.3051643999060616	0.4775595497888108	2	1
8	10	1	0.5	0.5	1	0.4865768631376578	1	2	0.3383862000191584	0.42483365075276	2	0
8	11	1	0.5	0.5	1	0.5381201681842691	1	2	0.2955888999858871	0.5383636091920948	2	0
8	12	1	0.5	0.5	1	0.4730789632273407	1	2	0.4748084000311792	0.4444386336766651	1	0
8	13	1	0.5	0.5	1	0.437073333023354	1	2	0.3268277000170201	0.5475942050996843	2	0
8	14	1	0.5	0.5	1	0.4070758076620879	1	1	0.3045388000318781	0.4166031161381211	1	1
8	15	1	0.5	0.5	1	0.5147792940689856	1	2	0.3037474000593647	0.5836235213133284	2	0
8	16	1	0.5	0.5	1	0.432970787789841	1	2	0.4305598000064492	0.4373523769211197	2	0
8	17	1	0.5	0.5	1	0.5963656622462842	1	1	0.3724828000413254	0.5103384517127837	2	1
8	18	1	0.5	0.5	1	0.5209230675714586	1	2	0.2660054999869317	0.5507450693241827	2	0
8	19	1	0.5	0.5	1	0.4181564765687446	1	1	0.408198699937202	0.5745458827867412	2	1
8	20	1	0.5	0.5	1	0.4971431606964288	1	1	0.4554874999448657	0.4217768472388558	2	1
9	1	2	0.6	0.1	1	0.5163688561607801	1	1	0.6105683000059798	0.5790861706063946	2	1
9	2	2	0.6	0.1	1	0.5876769493768479	1	2	0.2121717999689281	0.4337095276602606	2	0
9	3	2	0.6	0.1	1	0.5846960258529174	1	1	0.2041632999898866	0.596238017033123	2	1
9	4	2	0.6	0.1	1	0.5232323427496913	1	2	0.2979634000221267	0.4626556811863157	2	0
9	5	2	0.6	0.1	1	0.5248655392005985	1	2	0.273655500030145	0.5548230259068223	2	0
9	6	2	0.6	0.1	1	0.5952639709293025	1	2	0.2979440999915823	0.5529285884331063	2	0
9	7	2	0.6	0.1	1	0.558535942002236	1	2	0.3046241999836639	0.5598493160211079	2	0
9	8	2	0.6	0.1	1	0.5523782503838095	1	2	0.2536603999324143	0.5489520238835082	2	0
9	9	2	0.6	0.1	1	0.554453968172075	1	1	0.3064315000083297	0.4310715907823625	2	1
9	10	2	0.6	0.1	1	0.5315943718444683	1	1	0.2136251999763772	0.4102488295051695	1	1
9	11	2	0.6	0.1	1	0.437300091852059	1	1	0.2348451999714598	0.4947916754391254	2	1
9	12	2	0.6	0.1	1	0.4928892779458328	1	1	0.4540348999435082	0.5097962933976482	1	1
9	13	2	0.6	0.1	1	0.5000358904494964	1	1	0.2981988999526948	0.5666302066878819	1	1
9	14	2	0.6	0.1	1	0.5225312928508725	1	1	0.2436199999647215	0.4774443584509405	1	1
9	15	2	0.6	0.1	1	0.5632419927761908	1	1	0.3114503000397235	0.4957705181198331	2	1
9	16	2	0.6	0.1	1	0.5663811602477078	1	1	0.1823597999755293	0.4707020291704103	2	1
9	17	2	0.6	0.1	1	0.4867216225815863	1	1	0.4884283000137657	0.5506760310690594	2	1
9	18	2	0.6	0.1	1	0.4536490580302998	1	1	0.2125942000420764	0.4471963344696819	1	1
9	19	2	0.6	0.1	1	0.4237432088607593	1	1	0.665540200076066	0.5157969976479488	2	1
9	20	2	0.6	0.1	1	0.5319454135875682	1	1	0.2732638000743464	0.5940874934467634	1	1
10	1	2	0.6	0.1	1	0.5845857560746126	1	1	1.356688599917106	0.4513266137037151	2	1
10	2	2	0.6	0.1	1	0.5447379207103284	1	1	0.2744993000524119	0.4626959074461203	1	1
10	3	2	0.6	0.1	1	0.5418323029327471	1	1	0.3116922000190243	0.4255065516891098	2	1
10	4	2	0.6	0.1	1	0.5200372868668847	1	1	0.21206550009083	0.4412855410695273	1	1
10	5	2	0.6	0.1	1	0.5438899492499178	1	1	0.1878728000447154	0.5133209622603527	1	1
10	6	2	0.6	0.1	1	0.4697537202025313	1	2	0.2821870000334457	0.4999325062602969	2	0
10	7	2	0.6	0.1	1	0.536199490797061	1	1	0.1916257999837399	0.580267778583439	1	1
10	8	2	0.6	0.1	1	0.4884550790819251	1	1	0.294849899946712	0.5607709205458569	2	1
10	9	2	0.6	0.1	1	0.4266547589509884	1	1	0.274935599998571	0.4833331240886999	1	1
10	10	2	0.6	0.1	1	0.4948298421851869	1	1	0.3174005999462679	0.5117087305626207	2	1
10	11	2	0.6	0.1	1	0.5878297660137486	1	1	0.4213220999808982	0.4521840734332403	1	1
10	12	2	0.6	0.1	1	0.5726312706299972	1	1	0.1010810000589117	0.4976811883085785	1	1
10	13	2	0.6	0.1	1	0.4682054137264567	1	1	0.4233653000555933	0.4877931487353376	1	1
10	14	2	0.6	0.1	1	0.441850618459286	1	1	0.2729026000015438	0.4536023403653958	1	1
10	15	2	0.6	0.1	1	0.5169877205885546	1	1	0.2495528999716043	0.5906966701642434	1	1
10	16	2	0.6	0.1	1	0.4830998777576767	1	1	0.2417286999989301	0.461513851882294	2	1
10	17	2	0.6	0.1	1	0.5849764441981214	1	1	0.1202486000256613	0.415450246878321	2	1
10	18	2	0.6	0.1	1	0.5526471274496636	1	1	0.5971881999867037	0.4800804729281626	2	1
10	19	2	0.6	0.1	1	0.4554409836099325	1	1	0.2957850999664515	0.4193223883737185	2	1
10	20	2	0.6	0.1	1	0.4068844751661063	1	1	0.2787452000193298	0.4020973640409259	2	1
11	1	1	0.5	0.5	1	0.5176310558517766	1	2	0.6329285999527201	0.5200488349753278	2	0
11	2	1	0.5	0.5	1	0.4898832582266388	1	2	0.2249211000744253	0.5618603736407924	2	0
11	3	1	0.5	0.5	1	0.4187632861656689	1	2	0.4607958999695256	0.5514533433937091	2	0
11	4	1	0.5	0.5	1	0.404931795629297	1	1	0.315110299969092	0.4519784277284248	1	1
11	5	1	0.5	0.5	1	0.4618258022661093	1	1	0.2424951000139117	0.5336895707573067	2	1
11	6	1	0.5	0.5	1	0.5614142512504214	1	1	0.2527308999560773	0.4150944036413491	1	1
11	7	1	0.5	0.5	1	0.5313338796420128	1	1	0.2181580000324175	0.4807067803122008	2	1
11	8	1	0.5	0.5	1	0.5225399356313473	1	1	0.08267809997778386	0.5470388739470476	2	1
11	9	1	0.5	0.5	1	0.4789943759997501	1	1	0.1582060999935493	0.5660458708771576	1	1
11	10	1	0.5	0.5	1	0.5292264319540663	1	1	0.241730900015682	0.4734092528569153	1	1
11	11	1	0.5	0.5	1	0.5060920600690102	1	1	0.2287166999885812	0.4009253972919142	2	1
11	12	1	0.5	0.5	1	0.5684973933044712	1	1	0.2252601999789476	0.5781652849943009	2	1
11	13	1	0.5	0.5	1	0.5133719281283944	1	1	0.2505255999276415	0.5775569787753114	2	1
11	14	1	0.5	0.5	1	0.4302712769769969	1	2	0.2427754000527784	0.4126654277889926	2	0
11	15	1	0.5	0.5	1	0.5493789442564293	1	2	0.05700229993090034	0.5281683347056045	1	0
11	16	1	0.5	0.5	1	0.5636472063325222	1	1	0.2396800999995321	0.4695315774795557	2	1
11	17	1	0.5	0.5	1	0.4358615952481505	1	2	0.2439050999237224	0.4998200653530318	2	0
11	18	1	0.5	0.5	1	0.574677048827984	1	2	0.1628207999747247	0.4092485066402364	2	0
11	19	1	0.5	0.5	1	0.5182262666008852	1	2	0.3121671000262722	0.4997613888447843	1	0
11	20	1	0.5	0.5	1	0.4143163416947223	1	1	0.2846982999471948	0.4953256737459222	2	1
12	1	1	0.5	0.5	1	0.4241147330161485	1	1	0.4676838000304997	0.5256116119361006	1	1
12	2	1	0.5	0.5	1	0.4715854697095803	1	1	0.2227759999223053	0.4245842871544376	1	1
12	3	1	0.5	0.5	1	0.5906504363246954	1	1	0.3962270999327302	0.4273734528569824	2	1
12	4	1	0.5	0.5	1	0.5417272200505985	1	1	0.3415592999663204	0.4204484342700061	2	1
12	5	1	0.5	0.5	1	0.4897007096431435	1	1	0.2963531999848783	0.5309927095577074	1	1
12	6	1	0.5	0.5	1	0.4204135361566328	1	1	0.2615091999759898	0.5722204734948682	2	1
12	7	1	0.5	0.5	1	0.4355363776562713	1	1	0.3620439999504015	0.4108672137058086	2	1
12	8	1	0.5	0.5	1	0.4631910497734352	1	2	0.2629850000375882	0.4712789015414062	2	0
12	9	1	0.5	0.5	1	0.518280323228855	1	2	0.2846757000079378	0.5486546891133937	1	0
12	10	1	0.5	0.5	1	0.58324028154691	1	2	0.2211587999481708	0.4271975932584649	1	0
12	11	1	0.5	0.5	1	0.4301248055031939	1	2	0.323554000002332	0.5509902281075649	2	0
12	12	1	0.5	0.5	1	0.5037022393669346	1	2	0.3631183999823406	0.5605382507171788	1	0
12	13	1	0.5	0.5	1	0.5910137074884004	1	2	0.4696396000217646	0.5158019851631379	1	0
12	14	1	0.5	0.5	1	0.4997891053555635	1	2	0.2793698000023142	0.4163537628452838	2	0
12	15	1	0.5	0.5	1	0.4359979677904451	1	2	0.3334440999897197	0.4044367989318408	1	0
12	16	1	0.5	0.5	1	0.5804615261973127	1	2	0.3524855000432581	0.5075332880251303	2	0
12	17	1	0.5	0.5	1	0.4251287089626903	1	2	0.3207610000390559	0.4004324910878453	1	0
12	18	1	0.5	0.5	1	0.5721422003720217	1	2	0.3722304999828339	0.512455707909329	1	0
12	19	1	0.5	0.5	1	0.4297028772514692	1	2	0.4774253000505269	0.4394287397564065	2	0
12	20	1	0.5	0.5	1	0.4728587306100701	1	2	0.4750409000553191	0.4215076162792541	2	0
13	1	2	0.1	0.6	2	0.4682715893178407	1	1	0.4542128999019042	0.5314052629411926	2	0
13	2	2	0.1	0.6	2	0.5759741214358283	1	1	0.2521287000272423	0.5998059228368993	2	0
13	3	2	0.1	0.6	2	0.4646348617034295	1	1	0.3079785000300035	0.4832525907093562	2	0
13	4	2	0.1	0.6	2	0.5352163749260991	1	2	0.08147410000674427	0.5107583259474054	1	1
13	5	2	0.1	0.6	2	0.5947212755700739	1	2	0.1409664999227971	0.5184957980242553	1	1
13	6	2	0.1	0.6	2	0.4867882951560135	1	2	0.1936494000256062	0.5359305767668693	1	1
13	7	2	0.1	0.6	2	0.4237290531298986	1	2	0.2665497999405488	0.4434586683604704	1	1
13	8	2	0.1	0.6	2	0.4268961210232929	1	2	0.3108919999795035	0.5067367659006703	1	1
13	9	2	0.1	0.6	2	0.5944987195568928	1	2	0.1407305999891832	0.5551123427916226	2	1
13	10	2	0.1	0.6	2	0.5853793564167313	1	2	0.239492499968037	0.5584128188876487	1	1
13	11	2	0.1	0.6	2	0.532188954153054	1	2	0.0763687000144273	0.5209313592663376	1	1
13	12	2	0.1	0.6	2	0.541977552435932	1	2	0.2531431999523193	0.5813897545533584	1	1
13	13	2	0.1	0.6	2	0.4592976394887614	1	2	0.3934019999578595	0.4333679559575913	2	1
13	14	2	0.1	0.6	2	0.5350987156864874	1	2	0.2464511999860406	0.5540378489561266	1	1
13	15	2	0.1	0.6	2	0.5018961523618358	1	2	0.3757634999928996	0.5291958729201138	2	1
13	16	2	0.1	0.6	2	0.4856624073975063	1	2	0.3907220000401139	0.5445880356523165	1	1
13	17	2	0.1	0.6	2	0.4022284948714343	1	2	0.4900496000191197	0.5503017173638258	2	1
13	18	2	0.1	0.6	2	0.4861737369331587	1	2	0.2685095999622717	0.4278454346921185	2	1
13	19	2	0.1	0.6	2	0.5022808083664045	1	2	0.2518622000934556	0.4222643674458773	1	1
13	20	2	0.1	0.6	2	0.4915406177582051	1	2	0.1882308000931516	0.5532009478233575	1	1
14	1	1	0.5	0.5	1	0.5699824360811299	1	2	0.3891648000571877	0.4170396359231161	1	0
14	2	1	0.5	0.5	1	0.5257545280920357	1	2	0.2726713999873027	0.5146172606200744	2	0
14	3	1	0.5	0.5	1	0.591981595724023	1	2	0.2825707000447437	0.4764506927945226	2	0
14	4	1	0.5	0.5	1	0.4688058453645436	1	2	0.1372682999353856	0.5107213264279926	1	0
14	5	1	0.5	0.5	1	0.5461217884885003	1	2	0.2290161000564694	0.5091767885523169	1	0
14	6	1	0.5	0.5	1	0.4168951817603121	1	2	0.2507186000002548	0.5912415913146496	1	0
14	7	1	0.5	0.5	1	0.5211499084329623	1	2	0.298880499904044	0.5705142522916922	2	0
14	8	1	0.5	0.5	1	0.5627818916878828	1	2	0.1302547999657691	0.4166150133526222	1	0
14	9	1	0.5	0.5	1	0.4055515358847236	1	2	0.2783636000240222	0.5943068498517202	2	0
14	10	1	0.5	0.5	1	0.5244774694226898	1	2	0.549613400013186	0.5876080594387696	1	0
14	11	1	0.5	0.5	1	0.5181538818697371	1	2	0.2915974999777973	0.4015817633696328	1	0
14	12	1	0.5	0.5	1	0.474511733949216	1	2	0.2988912999862805	0.4759317484294627	1	0
14	13	1	0.5	0.5	1	0.5087176854894147	1	2	0.2893796000862494	0.484028501278652	2	0
14	14	1	0.5	0.5	1	0.46460386073552	1	2	0.2663555999752134	0.5919113145157966	2	0
14	15	1	0.5	0.5	1	0.442468197134809	1	1	0.3182208000216633	0.4707633703264583	1	1
14	16	1	0.5	0.5	1	0.584337630943676	1	1	0.3151609000051394	0.5830889890803066	2	1
14	17	1	0.5	0.5	1	0.5590090725510458	1	2	0.2118013000581414	0.5051781312226576	1	0
14	18	1	0.5	0.5	1	0.4072710762700652	1	2	0.2796738999895751	0.4168299778285131	2	0
14	19	1	0.5	0.5	1	0.5651540318010614	1	2	0.2690199000062421	0.5558410331826813	2	0
14	20	1	0.5	0.5	1	0.5038646173468829	1	1	0.0004434000002220273	0.4452508779614491	2	1
15	1	2	0.1	0.6	2	0.4905551620589372	1	2	1.023787099984474	0.4781572447759269	2	1
15	2	2	0.1	0.6	2	0.4017777345641365	1	2	0.2803160999901593	0.5806229393099235	1	1
15	3	2	0.1	0.6	2	0.5220144302122173	1	2	0.2189899000804871	0.4356156870554197	2	1
15	4	2	0.1	0.6	2	0.4103977655790815	1	1	0.02257799997460097	0.5049543033825779	1	0
15	5	2	0.1	0.6	2	0.5793126175169865	1	1	0.1850184999639168	0.5594840247361941	2	0
15	6	2	0.1	0.6	2	0.4974322353589828	1	2	0.8237310999538749	0.4844346555027442	2	1
15	7	2	0.1	0.6	2	0.5462755730752012	1	1	0.2234675999497995	0.4520100337192776	2	0
15	8	2	0.1	0.6	2	0.5128500484851839	1	1	0.1707258000969887	0.5993231335525999	2	0
15	9	2	0.1	0.6	2	0.407690757608082	1	1	1.717730200034566	0.4488940871340995	2	0
15	10	2	0.1	0.6	2	0.5119507709064905	1	1	0.3025536999339238	0.4982832524839291	1	0
15	11	2	0.1	0.6	2	0.5180704212190151	1	1	0.2439631000161171	0.4339006418578328	2	0
15	12	2	0.1	0.6	2	0.4770633131101129	1	2	0.2521234999876469	0.5979610658503272	1	1
15	13	2	0.1	0.6	2	0.4213289337591963	1	2	0.3079975999426097	0.4461786250618128	1	1
15	14	2	0.1	0.6	2	0.5885117248481733	1	2	0.2757305999984965	0.5174986821529117	2	1
15	15	2	0.1	0.6	2	0.4052701018324148	1	1	0.3018409999785945	0.4443957189538939	2	0
15	16	2	0.1	0.6	2	0.4377159888934205	1	2	0.3676645000232384	0.4114362981005777	1	1
15	17	2	0.1	0.6	2	0.5494060146611637	1	2	0.3176960999844596	0.4653705985377445	1	1
15	18	2	0.1	0.6	2	0.4862006315083316	1	2	0.365239700069651	0.4485632983678817	1	1
15	19	2	0.1	0.6	2	0.5502926269432173	1	2	0.2873983000172302	0.4763431140864999	2	1
15	20	2	0.1	0.6	2	0.4089211356046799	1	2	0.3807077999226749	0.4542661478523888	1	1
16	1	2	0.1	0.6	2	0.4747940052117812	1	2	0.3813877000939101	0.458458360923424	1	1
16	2	2	0.1	0.6	2	0.5190829170310832	1	2	0.2004486999940127	0.4378043224160262	2	1
16	3	2	0.1	0.6	2	0.4384448753199433	1	2	0.217781399958767	0.4752240618206949	1	1
16	4	2	0.1	0.6	2	0.4429910994954559	1	2	0.2156009000027552	0.4155481200221838	1	1
16	5	2	0.1	0.6	2	0.490806284075863	1	2	0.2418033999856561	0.4009933333679209	2	1
16	6	2	0.1	0.6	2	0.5043402836664536	1	2	0.08977090008556843	0.5297118340338749	1	1
16	7	2	0.1	0.6	2	0.4265190480131825	1	2	0.3070014000404626	0.4606298373238152	1	1
16	8	2	0.1	0.6	2	0.418351219023353	1	2	0.3124839999945834	0.427583267754613	1	1
16	9	2	0.1	0.6	2	0.5685795976115491	1	2	0.2985390999820083	0.5720607780867912	2	1
16	10	2	0.1	0.6	2	0.5630662131036831	1	2	0.2783310000086203	0.5253321614443383	2	1
16	11	2	0.1	0.6	2	0.4484953107124863	1	2	0.3070357999531552	0.4058080062361775	2	1
16	12	2	0.1	0.6	2	0.5255174492241519	1	2	0.2225878000026569	0.5380688427753575	1	1
16	13	2	0.1	0.6	2	0.4249263593738752	1	2	0.0003984000068157911	0.4619797460496029	1	1
16	14	2	0.1	0.6	2	0.4516769210124968	1	1	0.405505400034599	0.506803198067696	1	0
16	15	2	0.1	0.6	2	0.5813053590448902	1	2	0.2842923999996856	0.4480264411720376	1	1
16	16	2	0.1	0.6	2	0.4123500208391511	1	1	0.2959610999096185	0.5386535534461672	2	0
16	17	2	0.1	0.6	2	0.4412141867475458	1	1	0.2764396000420675	0.5648345980316827	2	0
16	18	2	0.1	0.6	2	0.5973738137362045	1	1	0.2802141000283882	0.5778829818271887	2	0
16	19	2	0.1	0.6	2	0.517846304148418	1	2	0.2467653000494465	0.4110012903059153	2	1
16	20	2	0.1	0.6	2	0.4050930707316436	1	2	0.4043240000028163	0.5291148583383697	1	1
17	1	1	0.5	0.5	1	0.5193625579040373	1	1	0.3200058999937028	0.4010896120726377	1	1
17	2	1	0.5	0.5	1	0.423967648293219	1	1	0.3561793999979272	0.4397318617898168	2	1
17	3	1	0.5	0.5	1	0.4366862210197158	1	1	0.2934105999302119	0.5761575014634743	2	1
17	4	1	0.5	0.5	1	0.4214244905430019	1	2	0.3013224999886006	0.4914702345636219	1	0
17	5	1	0.5	0.5	1	0.5720925431618503	1	2	0.1866131999995559	0.59997488649652	2	0
17	6	1	0.5	0.5	1	0.4169219196495557	1	2	0.3799212999874726	0.4080174084702739	2	0
17	7	1	0.5	0.5	1	0.4650740863680754	1	2	0.2021032000193372	0.4020984606897814	2	0
17	8	1	0.5	0.5	1	0.4367072256746378	1	1	0.1865936000831425	0.4897614279692045	2	1
17	9	1	0.5	0.5	1	0.4995699766924944	1	1	0.1855295000132173	0.4699757642365083	1	1
17	10	1	0.5	0.5	1	0.4994055368774217	1	2	0.2444806999992579	0.5714610142895235	1	0
17	11	1	0.5	0.5	1	0.456326479539544	1	2	0.2749568000435829	0.4303444259800495	2	0
17	12	1	0.5	0.5	1	0.5603607965849694	1	2	0.1820202000671998	0.5032826886069202	2	0
17	13	1	0.5	0.5	1	0.534161656182964	1	1	0.1234303000383079	0.5731364009346266	1	1
17	14	1	0.5	0.5	1	0.4456037961486445	1	2	0.7959266999969259	0.4767688772542557	2	0
17	15	1	0.5	0.5	1	0.5283423204555188	1	2	0.1338365999981761	0.5164566147372625	1	0
17	16	1	0.5	0.5	1	0.5584375000699187	1	1	0.4073442000662908	0.5645918436301701	1	1
17	17	1	0.5	0.5	1	0.5855541081851225	1	1	0.1937509999843314	0.5639420993316667	1	1
17	18	1	0.5	0.5	1	0.413737125120282	1	1	0.3845921999309212	0.5039117560815822	2	1
17	19	1	0.5	0.5	1	0.4651073549867254	1	2	0.2955771000124514	0.4964380584432778	1	0
17	20	1	0.5	0.5	1	0.5503899509589811	1	1	0.1831818999489769	0.4757532538148624	2	1
18	1	1	0.5	0.5	1	0.5163226472908093	1	2	0.53661990002729	0.5952624875022633	2	0
18	2	1	0.5	0.5	1	0.5865236021441311	1	1	0.2981317000230774	0.5286042979343668	1	1
18	3	1	0.5	0.5	1	0.4435485697607883	1	2	0.3467738999752328	0.4342005442019757	1	0
18	4	1	0.5	0.5	1	0.4858197539098173	1	2	0.3359005999518558	0.551244198142538	2	0
18	5	1	0.5	0.5	1	0.5800283741242492	1	1	0.2525377999991179	0.4565631702531754	1	1
18	6	1	0.5	0.5	1	0.5147879018211617	1	1	0.2588502999860793	0.4844477843040261	2	1
18	7	1	0.5	0.5	1	0.5171208899140947	1	1	0.2449205999728292	0.514874067115666	1	1
18	8	1	0.5	0.5	1	0.4810044206975422	1	1	0.2526929000159726	0.4687581404282918	1	1
18	9	1	0.5	0.5	1	0.4722830047850406	1	1	0.2794171000132337	0.5380570976129588	1	1
18	10	1	0.5	0.5	1	0.4447123303968002	1	1	0.2315898999804631	0.4277481624261047	2	1
18	11	1	0.5	0.5	1	0.5554802648308033	1	1	0.1420164000010118	0.4862987679165429	1	1
18	12	1	0.5	0.5	1	0.4182817307678332	1	1	0.2594502998981625	0.4649918293957982	2	1
18	13	1	0.5	0.5	1	0.5857159180874933	1	1	0.07319610007107258	0.5823880816774892	1	1
18	14	1	0.5	0.5	1	0.4543621551462226	1	1	0.348482400062494	0.4500100176841991	2	1
18	15	1	0.5	0.5	1	0.5553045304324953	1	1	0.2007222999818623	0.4398779710789105	1	1
18	16	1	0.5	0.5	1	0.4167794154011641	1	1	0.292364599998109	0.5221831178256084	2	1
18	17	1	0.5	0.5	1	0.4900182984201484	1	1	0.2768408000702038	0.5662772079340643	1	1
18	18	1	0.5	0.5	1	0.5511157696216027	1	1	0.3595106999855489	0.5112662907298287	2	1
18	19	1	0.5	0.5	1	0.5644931992716514	1	1	0.2836791999870911	0.5934995752539912	2	1
18	20	1	0.5	0.5	1	0.4048562411580781	1	1	0.1611740000080317	0.5553112200553169	1	1
19	1	2	0.1	0.6	2	0.4640885979693234	1	2	0.5060196000849828	0.5630236516423291	2	1
19	2	2	0.1	0.6	2	0.5026709724371858	1	2	0.3076792000792921	0.4707838837653835	2	1
19	3	2	0.1	0.6	2	0.4852393582501425	1	1	0.2516590999439359	0.4546975596121744	2	0
19	4	2	0.1	0.6	2	0.5129800789740946	1	1	0.2470504000084475	0.5948590205716309	2	0
19	5	2	0.1	0.6	2	0.5565539488098123	1	1	0.2464423000346869	0.4798626821872051	2	0
19	6	2	0.1	0.6	2	0.5398234701286047	1	2	0.2604472000384703	0.5091742002867787	1	1
19	7	2	0.1	0.6	2	0.5305151278981532	1	2	0.1853513000532985	0.5994711472062692	1	1
19	8	2	0.1	0.6	2	0.5591805468708339	1	2	0.2607172999996692	0.5226895050533169	2	1
19	9	2	0.1	0.6	2	0.4449107803319582	1	2	0.354161600000225	0.5101808032006117	1	1
19	10	2	0.1	0.6	2	0.494515241968065	1	2	0.2187973000109196	0.4430051953740384	1	1
19	11	2	0.1	0.6	2	0.4290523580793644	1	2	0.2277567000128329	0.5242271694958154	1	1
19	12	2	0.1	0.6	2	0.5686744464105068	1	2	0.3149945000186563	0.4458194896577959	2	1
19	13	2	0.1	0.6	2	0.4713092440418611	1	2	0.3154619999695569	0.42235131343746	1	1
19	14	2	0.1	0.6	2	0.4611452647590263	1	2	0.318604499916546	0.4196127600227135	1	1
19	15	2	0.1	0.6	2	0.4624984238241888	1	2	0.3146772999316454	0.5894202105138447	1	1
19	16	2	0.1	0.6	2	0.5707642277262326	1	2	0.08976859995163977	0.5536787422980376	2	1
19	17	2	0.1	0.6	2	0.4724015500500071	1	2	0.2532529999734834	0.4454801839667626	1	1
19	18	2	0.1	0.6	2	0.44882161096899	1	2	0.2689687999663875	0.5750818836404323	1	1
19	19	2	0.1	0.6	2	0.5847425020155614	1	2	0.07158410002011806	0.5923904025091171	2	1
19	20	2	0.1	0.6	2	0.4556072810343311	1	2	0.2646773000014946	0.5740241840153764	2	1
20	1	1	0.5	0.5	1	0.4016994831636985	1	1	0.5873112000990659	0.4470934258433232	2	1
20	2	1	0.5	0.5	1	0.4408896371953772	1	1	0.2571497999597341	0.4184907408295784	2	1
20	3	1	0.5	0.5	1	0.5599532933253406	1	2	0.1151335000758991	0.5064965053526886	1	0
20	4	1	0.5	0.5	1	0.4450139159138119	1	1	0.225920099997893	0.5350428755873775	1	1
20	5	1	0.5	0.5	1	0.5154419663239381	1	2	0.2736685000127181	0.43756926726048	1	0
20	6	1	0.5	0.5	1	0.5871921476698526	1	2	0.1528359999647364	0.522411463717787	2	0
20	7	1	0.5	0.5	1	0.4668070867444292	1	2	0.1737561000045389	0.5048903413897137	1	0
20	8	1	0.5	0.5	1	0.5839032004452466	1	2	0.2007140000350773	0.4338798988827236	1	0
20	9	1	0.5	0.5	1	0.524246280545926	1	2	0.2251701999921352	0.4282136716469752	2	0
20	10	1	0.5	0.5	1	0.5362124519635018	1	2	0.2409686000319198	0.4446524045961956	1	0
20	11	1	0.5	0.5	1	0.54803606232153	1	2	0.2290464000543579	0.5705291240564576	1	0
20	12	1	0.5	0.5	1	0.4613883793715683	1	2	0.255147899966687	0.4232335078870623	1	0
20	13	1	0.5	0.5	1	0.4147985770424574	1	2	0.2579154999693856	0.4715932129317131	2	0
20	14	1	0.5	0.5	1	0.5765009321082484	1	2	0.1937638999661431	0.4692604057420673	2	0
20	15	1	0.5	0.5	1	0.4764374967546167	1	2	0.231545599992387	0.5260541824114175	1	0
20	16	1	0.5	0.5	1	0.5089793094889321	1	2	0.3730065999552608	0.4863609966211949	2	0
20	17	1	0.5	0.5	1	0.4488867847157017	1	2	0.2506773000350222	0.4136304915295723	2	0
20	18	1	0.5	0.5	1	0.5289244074414895	1	2	0.1679903999902308	0.4206288162927733	2	0
20	19	1	0.5	0.5	1	0.4516839027495884	1	2	0.1655327000189573	0.5637085762863088	1	0
20	20	1	0.5	0.5	1	0.4638477057091878	1	2	0.09618839994072914	0.5711579980042377	1	0
