blockNum	trialNum	condition	pWin1	pWin2	optimalResponse	preStimulusDelay	responded	response	rt	preFeedbackDelay	outcome	optimal
1	1	2	0.1	0.6	2	0.470278139390057	0	n/a	n/a	n/a	n/a	n/a
1	2	2	0.1	0.6	2	0.4718687710617101	1	1	0.5453287999844179	0.5649005162409064	2	0
1	3	2	0.1	0.6	2	0.4192253644588176	1	2	0.473451700003352	0.4463548743606494	1	1
1	4	2	0.1	0.6	2	0.509355517802951	1	2	0.6907760999747552	0.4331008406031903	2	1
1	5	2	0.1	0.6	2	0.5387576569427286	1	1	0.4850502000190318	0.4364028228632498	2	0
1	6	2	0.1	0.6	2	0.598411261125068	1	2	0.6508517000474967	0.4536191999064423	2	1
1	7	2	0.1	0.6	2	0.5127914853777636	1	2	0.3051123999757692	0.5691674179530037	2	1
1	8	2	0.1	0.6	2	0.5880489506346217	1	1	0.3058506999514066	0.5251673182126224	2	0
1	9	2	0.1	0.6	2	0.4671689726160121	1	1	0.3378623999888077	0.498238413144643	2	0
1	10	2	0.1	0.6	2	0.566262255795243	1	1	0.3552095000050031	0.4900635676957878	2	0
1	11	2	0.1	0.6	2	0.5560004345349427	1	2	0.3238984000054188	0.5044889377546714	1	1
1	12	2	0.1	0.6	2	0.4507498862800246	1	2	0.3991074999794364	0.5447959376731477	2	1
1	13	2	0.1	0.6	2	0.4953789067078961	1	2	0.5198353000450879	0.5747064744274377	1	1
1	14	2	0.1	0.6	2	0.5228972278987826	1	1	0.3700757999904454	0.4214931153552338	2	0
1	15	2	0.1	0.6	2	0.491667200426362	1	2	0.2600048000458628	0.5003987922145007	2	1
1	16	2	0.1	0.6	2	0.5813923575637633	1	2	0.2019326000008732	0.5034680033492831	1	1
1	17	2	0.1	0.6	2	0.5445257205884345	1	2	0.4041114000137895	0.5902543427260086	1	1
1	18	2	0.1	0.6	2	0.4602053382768773	1	1	0.3212690000073053	0.4417463255417531	2	0
1	19	2	0.1	0.6	2	0.5447575063043663	1	2	0.2359532000264153	0.5669278291491446	2	1
1	20	2	0.1	0.6	2	0.4594484540437294	1	2	0.4655530999880284	0.4073524030927687	2	1
2	1	1	0.5	0.5	1	0.4827980941295488	1	1	0.3802856000256725	0.4163828364283429	1	1
2	2	1	0.5	0.5	1	0.4336555054471335	1	1	0.311288999975659	0.5637563218735298	2	1
2	3	1	0.5	0.5	1	0.4372764094600085	1	1	0.3723582000238821	0.4090711782112221	1	1
2	4	1	0.5	0.5	1	0.4536441262448705	1	2	0.2782828999916092	0.5269600500557462	2	0
2	5	1	0.5	0.5	1	0.5183236703369094	1	1	0.1892652999958955	0.5519349609525981	2	1
2	6	1	0.5	0.5	1	0.5645110038836575	1	1	0.1956065999693237	0.5649081451270487	1	1
2	7	1	0.5	0.5	1	0.583829191184577	1	2	0.5754664999549277	0.4411428871646876	2	0
2	8	1	0.5	0.5	1	0.4012659948891684	1	1	0.2646647000219673	0.5026007244148755	2	1
2	9	1	0.5	0.5	1	0.5358025308529515	1	1	0.3948297000024468	0.4524973584424089	1	1
2	10	1	0.5	0.5	1	0.5638645670444361	1	2	0.3229448000201955	0.4412848460093831	2	0
2	11	1	0.5	0.5	1	0.4176569715312424	1	1	0.2281962999841198	0.4153442125007418	2	1
2	12	1	0.5	0.5	1	0.4833570894535184	1	1	0.1460628000204451	0.5529938022639548	1	1
2	13	1	0.5	0.5	1	0.4393939439777568	1	1	0.326540699985344	0.5639216944845268	2	1
2	14	1	0.5	0.5	1	0.518812004476271	1	2	0.124162099964451	0.4968028558383918	2	0
2	15	1	0.5	0.5	1	0.4519596012036395	1	1	0.3112551000085659	0.4286986743450936	2	1
2	16	1	0.5	0.5	1	0.5705498741091944	1	1	0.3128150000120513	0.5748931785636029	1	1
2	17	1	0.5	0.5	1	0.514619694171448	1	1	0.5111075000022538	0.4226847796980303	2	1
2	18	1	0.5	0.5	1	0.4454951749372114	1	2	0.2750449000159279	0.4311597180682704	2	0
2	19	1	0.5	0.5	1	0.4895473047036786	1	1	0.303321200015489	0.5988989506243719	2	1
2	20	1	0.5	0.5	1	0.5847168206438639	1	1	0.2331348000443541	0.4849424763028364	2	1
3	1	2	0.1	0.6	2	0.5933739182070751	1	2	0.2831987999961711	0.5915304364219395	2	1
3	2	2	0.1	0.6	2	0.5603167628796235	1	2	0.251746500027366	0.4198939049720536	1	1
3	3	2	0.1	0.6	2	0.5687438171889271	1	2	0.4066191000165418	0.5054846621658189	1	1
3	4	2	0.1	0.6	2	0.5063558198362863	1	2	0.2565980999497697	0.5453682157910955	2	1
3	5	2	0.1	0.6	2	0.4593722489636675	1	2	0.1989999999641441	0.4721570463796877	1	1
3	6	2	0.1	0.6	2	0.5402166657086096	1	2	0.4521246000076644	0.5908963949587831	1	1
3	7	2	0.1	0.6	2	0.5138737866508604	1	1	0.2292073999997228	0.4091543634862351	1	0
3	8	2	0.1	0.6	2	0.4168940016338613	1	2	0.259422299975995	0.5288360303554159	1	1
3	9	2	0.1	0.6	2	0.5249805697104223	1	2	0.1990265000495128	0.4947810008715871	1	1
3	10	2	0.1	0.6	2	0.4120012402070822	1	1	0.2326640000101179	0.4816335059467192	2	0
3	11	2	0.1	0.6	2	0.5541899492079035	1	1	0.4273830000311136	0.4457749393169205	1	0
3	12	2	0.1	0.6	2	0.5109973215461132	1	2	0.2223814000026323	0.4390910871191748	1	1
3	13	2	0.1	0.6	2	0.5346343100409987	1	2	0.1932104000006802	0.562574149443915	2	1
3	14	2	0.1	0.6	2	0.442796053645691	1	1	0.1777350999764167	0.5342670805641963	2	0
3	15	2	0.1	0.6	2	0.5532478669687562	1	1	0.233463299984578	0.51494290484343	2	0
3	16	2	0.1	0.6	2	0.5287528952835087	1	2	0.1911474000080489	0.5224641864488754	2	1
3	17	2	0.1	0.6	2	0.4508624571369317	1	2	0.2423016999964602	0.4372533039862673	2	1
3	18	2	0.1	0.6	2	0.4068711722550316	1	2	0.6226991000003181	0.4201783765319698	1	1
3	19	2	0.1	0.6	2	0.43912386562002	1	2	0.5399507000111043	0.4684659773241017	1	1
3	20	2	0.1	0.6	2	0.5272194911010157	1	1	0.2213617999805138	0.5472574397547962	2	0
4	1	1	0.5	0.5	1	0.4676568364220867	1	2	0.7790961000137031	0.4182575251103503	1	0
4	2	1	0.5	0.5	1	0.4350238634123916	1	2	0.3463397999876179	0.5432341030331302	2	0
4	3	1	0.5	0.5	1	0.4462780506917242	1	1	0.3880211000214331	0.5613205464783116	2	1
4	4	1	0.5	0.5	1	0.5884942843995353	1	1	0.06198210001457483	0.5256545382167187	2	1
4	5	1	0.5	0.5	1	0.5179549728229872	1	2	0.127724300022237	0.4341388617194828	1	0
4	6	1	0.5	0.5	1	0.5521504476794235	1	2	0.3965718999970704	0.5415637997086682	2	0
4	7	1	0.5	0.5	1	0.4989406893009801	1	1	0.3215256999828853	0.4141325026612372	1	1
4	8	1	0.5	0.5	1	0.5327375481098171	1	2	0.4584937000181526	0.4463531270942653	2	0
4	9	1	0.5	0.5	1	0.57448748608164	1	1	0.2875602999702096	0.5160075010960216	2	1
4	10	1	0.5	0.5	1	0.4758268977422073	1	1	0.5279460999881849	0.5778408515297829	2	1
4	11	1	0.5	0.5	1	0.4399061392398403	1	2	0.3242065999656916	0.595318927310625	2	0
4	12	1	0.5	0.5	1	0.5146276081476928	1	2	0.0004087999695912004	0.4342583727806436	1	0
4	13	1	0.5	0.5	1	0.5058145110176469	1	2	0.2906587999896146	0.4988063219346226	2	0
4	14	1	0.5	0.5	1	0.4804999373942318	1	2	0.2623032000265084	0.4931919781523261	2	0
4	15	1	0.5	0.5	1	0.5496386862125431	1	1	0.3581005000160076	0.4436169303359487	1	1
4	16	1	0.5	0.5	1	0.559277686561751	1	1	0.4062706000404432	0.4220077227398774	2	1
4	17	1	0.5	0.5	1	0.5885750788747642	1	2	0.3948995000100695	0.5103578986926777	2	0
4	18	1	0.5	0.5	1	0.4679114028789934	1	1	0.2914820000296459	0.4972490150678603	1	1
4	19	1	0.5	0.5	1	0.593654351559065	1	1	0.3689341999706812	0.4436282047265125	2	1
4	20	1	0.5	0.5	1	0.4378249526048769	1	2	0.4884458999731578	0.5817129362384994	2	0
5	1	2	0.6	0.1	1	0.5608987781708168	1	1	0.6275601999950595	0.5418660191964854	2	1
5	2	2	0.6	0.1	1	0.5911777398338054	1	1	0.4702105000033043	0.5855223573882081	2	1
5	3	2	0.6	0.1	1	0.5364078479482876	1	2	0.3763800000306219	0.4892801699161266	2	0
5	4	2	0.6	0.1	1	0.4166940287030468	1	2	0.1641157999983989	0.5400317861985209	2	0
5	5	2	0.6	0.1	1	0.4364109050131225	1	2	0.799827600014396	0.5435988850710733	2	0
5	6	2	0.6	0.1	1	0.5201195192381617	1	2	0.2089610999682918	0.5536721846078873	2	0
5	7	2	0.6	0.1	1	0.4708419528854901	1	2	0.4723453999613412	0.5475809058909114	2	0
5	8	2	0.6	0.1	1	0.56196781312095	1	1	0.4005784000037238	0.5776838264579156	2	1
5	9	2	0.6	0.1	1	0.5227041481757919	1	2	0.0003971999976783991	0.5739830473536244	2	0
5	10	2	0.6	0.1	1	0.5780473287775596	1	1	0.8559229000238702	0.446385699683109	2	1
5	11	2	0.6	0.1	1	0.4751079649973815	1	1	0.6396180000156164	0.4821343845491915	2	1
5	12	2	0.6	0.1	1	0.5466884123199991	1	2	0.3495740999933332	0.4638271101165455	2	0
5	13	2	0.6	0.1	1	0.4604649122387572	1	2	0.7073530000052415	0.5151295587483705	2	0
5	14	2	0.6	0.1	1	0.58645642398023	1	2	0.000400999968405813	0.4489790011291661	2	0
5	15	2	0.6	0.1	1	0.5995252809261942	1	2	0.09388780000153929	0.5459004509226717	2	0
5	16	2	0.6	0.1	1	0.4474496268802686	1	2	0.5996529000112787	0.5386157415108881	2	0
5	17	2	0.6	0.1	1	0.4746028670662168	1	2	0.5393342999741435	0.4830177774307821	2	0
5	18	2	0.6	0.1	1	0.559151016640143	1	1	0.6807207000092603	0.4882443401982948	1	1
5	19	2	0.6	0.1	1	0.4288297384581146	1	1	0.5717929999809712	0.4171824430129074	1	1
5	20	2	0.6	0.1	1	0.5169377225728378	1	1	0.6353534000227228	0.4728566320084148	1	1
6	1	1	0.5	0.5	1	0.5776848168060016	1	1	0.828378000005614	0.5406142687265123	2	1
6	2	1	0.5	0.5	1	0.5135370157038077	1	1	0.3224820999894291	0.5974444255355575	2	1
6	3	1	0.5	0.5	1	0.4478120100374773	1	2	0.3552857000031509	0.596682041098155	1	0
6	4	1	0.5	0.5	1	0.4645227840163031	1	2	0.3743066000170074	0.574865170719733	2	0
6	5	1	0.5	0.5	1	0.5132611884893017	1	1	0.3088191000279039	0.5613334115515722	2	1
6	6	1	0.5	0.5	1	0.4590570598282844	1	2	0.2645273999660276	0.442066165239178	2	0
6	7	1	0.5	0.5	1	0.4374637541703139	1	2	0.2448742000269704	0.4554777500379376	2	0
6	8	1	0.5	0.5	1	0.4518825265700767	1	2	0.2468043999979272	0.5937807875261654	1	0
6	9	1	0.5	0.5	1	0.4902187234573242	1	2	0.2351232999935746	0.4932469986664224	1	0
6	10	1	0.5	0.5	1	0.5021697306385425	1	2	0.2907491000369191	0.4459256600330792	1	0
6	11	1	0.5	0.5	1	0.4365778618045352	1	2	0.5264819000149146	0.5675837368729466	2	0
6	12	1	0.5	0.5	1	0.5656307704071795	1	1	0.3146133000263944	0.5550658620884448	2	1
6	13	1	0.5	0.5	1	0.5294881601579213	1	1	0.2122151000075974	0.5527855420891361	2	1
6	14	1	0.5	0.5	1	0.418827200913653	1	2	0.2347961000050418	0.592359751137522	1	0
6	15	1	0.5	0.5	1	0.4675170869902988	1	2	0.4808629000326619	0.5890223491740885	2	0
6	16	1	0.5	0.5	1	0.488018232351116	1	2	0.8546537000220269	0.4662331963497107	1	0
6	17	1	0.5	0.5	1	0.5099364448033539	1	2	0.3564312999951653	0.5861158087664899	2	0
6	18	1	0.5	0.5	1	0.5411757689069334	1	2	0.1553076999844052	0.4794973853388106	2	0
6	19	1	0.5	0.5	1	0.5464050587140243	1	1	0.3025816999725066	0.5675586755382411	2	1
6	20	1	0.5	0.5	1	0.5979284161542358	1	2	0.0004053000011481345	0.4190306937122365	2	0
7	1	2	0.1	0.6	2	0.4255428440439948	1	2	0.4215125999762677	0.4783321043973252	1	1
7	2	2	0.1	0.6	2	0.4360844920614246	1	2	0.8324065000051633	0.4405289918241211	1	1
7	3	2	0.1	0.6	2	0.5020066844524074	1	2	0.7044265000149608	0.4631528756213298	1	1
7	4	2	0.1	0.6	2	0.4348700205510925	1	2	0.7524506999761797	0.5037785700316488	2	1
7	5	2	0.1	0.6	2	0.4997850349438672	1	2	0.4067016000044532	0.5285693102155599	1	1
7	6	2	0.1	0.6	2	0.4176395839328298	1	2	0.4331242999760434	0.4431233640247927	1	1
7	7	2	0.1	0.6	2	0.4588644669860059	1	2	0.4914121000329033	0.5308038253526011	2	1
7	8	2	0.1	0.6	2	0.5221733065330489	1	2	0.3152278999914415	0.5881238150283485	2	1
7	9	2	0.1	0.6	2	0.5262467813996361	1	1	0.3260418000281788	0.4131009083027877	2	0
7	10	2	0.1	0.6	2	0.595986906359161	1	2	0.2839338000048883	0.4981107318030187	2	1
7	11	2	0.1	0.6	2	0.4270237181501935	1	2	0.2159249999676831	0.5860014762929073	1	1
7	12	2	0.1	0.6	2	0.5585172724248992	1	2	0.4090755999786779	0.5596683488293124	1	1
7	13	2	0.1	0.6	2	0.5669599782223954	1	2	0.3261219999985769	0.5843504408067056	1	1
7	14	2	0.1	0.6	2	0.486733619630518	1	2	0.3849765000049956	0.4089923966761018	2	1
7	15	2	0.1	0.6	2	0.5391030231106877	1	2	0.5602888999856077	0.5253791325540257	1	1
7	16	2	0.1	0.6	2	0.5272151861382496	1	2	0.5982582999859005	0.5469249304021562	1	1
7	17	2	0.1	0.6	2	0.5115067856765008	1	2	0.3763007000088692	0.4195727682501105	1	1
7	18	2	0.1	0.6	2	0.404409036623095	1	2	0.6240789000294171	0.5130008122164775	2	1
7	19	2	0.1	0.6	2	0.439771254700512	1	2	0.1229667000006884	0.5137923004810723	1	1
7	20	2	0.1	0.6	2	0.4155061829445922	1	2	0.3478363999747671	0.5905721243732315	1	1
8	1	1	0.5	0.5	1	0.430976822837106	1	1	0.5744297000346705	0.4648075476133006	2	1
8	2	1	0.5	0.5	1	0.560735458632082	1	1	0.4398568000178784	0.5640361118540282	1	1
8	3	1	0.5	0.5	1	0.5663214845727715	1	1	0.2863044999539852	0.5669465705607961	2	1
8	4	1	0.5	0.5	1	0.5025367052661267	1	1	0.1418303999816999	0.597964626993569	2	1
8	5	1	0.5	0.5	1	0.485253564037631	1	2	0.762846699974034	0.5500186838036392	2	0
8	6	1	0.5	0.5	1	0.4530838705534468	1	1	0.3168001000303775	0.4644665026126316	2	1
8	7	1	0.5	0.5	1	0.5166397032048325	1	2	0.2530800999957137	0.5141133951699092	1	0
8	8	1	0.5	0.5	1	0.5803059133922965	1	2	0.4997516000294127	0.4494172932596028	2	0
8	9	1	0.5	0.5	1	0.4868253612677182	1	1	0.3236668999888934	0.5229124269477905	1	1
8	10	1	0.5	0.5	1	0.5466918085780053	1	1	0.3273616000078619	0.4078507425677538	2	1
8	11	1	0.5	0.5	1	0.5138259769512166	1	2	0.4668370999861509	0.5962762804100677	2	0
8	12	1	0.5	0.5	1	0.4675280456574165	1	1	0.6146874999976717	0.41352957864866	2	1
8	13	1	0.5	0.5	1	0.4747414889926672	1	1	0.2969607000122778	0.4593860389550117	2	1
8	14	1	0.5	0.5	1	0.4805815663253031	1	1	0.09347550000529736	0.464845317395047	1	1
8	15	1	0.5	0.5	1	0.5327100407847899	1	1	0.5815201999503188	0.4035197868442056	2	1
8	16	1	0.5	0.5	1	0.4058856743166281	1	1	0.3009348000050522	0.4337353829189006	2	1
8	17	1	0.5	0.5	1	0.4935914297271714	1	2	0.2458177999942563	0.42547419322482	2	0
8	18	1	0.5	0.5	1	0.5575482456500638	1	2	0.4038047000067309	0.5784151431347579	2	0
8	19	1	0.5	0.5	1	0.5623505235442711	1	2	0.650603299960494	0.4867461465921659	1	0
8	20	1	0.5	0.5	1	0.5936695313004031	1	2	0.3040428999811411	0.5470487152062125	1	0
9	1	2	0.6	0.1	1	0.4105190525916428	1	1	0.4558770000003278	0.5227157719967093	1	1
9	2	2	0.6	0.1	1	0.4800176813032174	1	1	0.2715295999660157	0.5137190993935927	2	1
9	3	2	0.6	0.1	1	0.4328425478778364	1	2	0.4978490999783389	0.4861113438258304	2	0
9	4	2	0.6	0.1	1	0.59844222031384	1	1	0.5999485999927856	0.4417395274714938	1	1
9	5	2	0.6	0.1	1	0.441384683460331	1	2	0.3572350000031292	0.4982380363357699	2	0
9	6	2	0.6	0.1	1	0.4659388281123795	1	1	0.2966925000073388	0.492953233210374	2	1
9	7	2	0.6	0.1	1	0.4109190733977209	1	1	0.4187181000015698	0.4240627796360733	1	1
9	8	2	0.6	0.1	1	0.4901498285767062	1	1	0.5921851999592036	0.5830808409077265	1	1
9	9	2	0.6	0.1	1	0.5085905404266581	1	1	0.3817136000143364	0.5537587668128344	1	1
9	10	2	0.6	0.1	1	0.5325758922804795	1	1	0.2566148000187241	0.5484285239149538	1	1
9	11	2	0.6	0.1	1	0.5375589641093628	1	1	0.4222128000110388	0.502106517745313	2	1
9	12	2	0.6	0.1	1	0.4456790786792346	1	1	0.2023285999894142	0.529376328718924	2	1
9	13	2	0.6	0.1	1	0.4229140066766249	1	1	0.3056922000250779	0.4393634976924955	2	1
9	14	2	0.6	0.1	1	0.4172514522463291	1	2	0.0004261000431142747	0.5260841186141896	1	0
9	15	2	0.6	0.1	1	0.447961293580376	1	2	0.2489232000079937	0.5695690249837619	2	0
9	16	2	0.6	0.1	1	0.5544883244481907	1	1	0.3183174000005238	0.4119902305607704	2	1
9	17	2	0.6	0.1	1	0.529878551173127	1	1	0.2947877999977209	0.4965776866442916	2	1
9	18	2	0.6	0.1	1	0.5112072706018936	1	1	0.3252423999947496	0.4923694946655324	1	1
9	19	2	0.6	0.1	1	0.4854332241848976	1	1	0.381663300038781	0.4524059682822302	2	1
9	20	2	0.6	0.1	1	0.5362356673693962	1	2	0.407306500012055	0.588722495601893	2	0
10	1	1	0.5	0.5	1	0.4036864575084363	1	1	0.6041665999800898	0.4115712612719792	2	1
10	2	1	0.5	0.5	1	0.4401481211229693	1	1	0.2766963000176474	0.4157931540513625	2	1
10	3	1	0.5	0.5	1	0.4302457963400562	1	1	0.2750908000161871	0.4326604660402514	2	1
10	4	1	0.5	0.5	1	0.5273165656520578	1	1	0.2874337999965064	0.5110190649668899	2	1
10	5	1	0.5	0.5	1	0.4779086500664861	1	1	0.1122686000308022	0.5031883385400944	1	1
10	6	1	0.5	0.5	1	0.5777885056545661	1	1	0.2325131999677978	0.5488768014384757	1	1
10	7	1	0.5	0.5	1	0.5371031224087772	1	1	0.271519800007809	0.4234476267382445	1	1
10	8	1	0.5	0.5	1	0.5236697928471268	1	1	0.3372163000167347	0.4045901393605034	2	1
10	9	1	0.5	0.5	1	0.4612268963172027	1	2	0.2530334000475705	0.5977261070019722	2	0
10	10	1	0.5	0.5	1	0.5310576122521814	1	2	0.7481977999559604	0.4385836293188815	2	0
10	11	1	0.5	0.5	1	0.4336156142940202	1	1	0.284830000018701	0.5115303228197964	2	1
10	12	1	0.5	0.5	1	0.4991050576798266	1	1	0.2174076000228524	0.4352128515973143	1	1
10	13	1	0.5	0.5	1	0.5057180393038916	1	1	0.0004024000372737646	0.5469364994326554	2	1
10	14	1	0.5	0.5	1	0.5109093860661907	1	1	0.3043103999807499	0.4883132325914056	2	1
10	15	1	0.5	0.5	1	0.4605610384977435	1	2	0.7817832999862731	0.4043829793334013	2	0
10	16	1	0.5	0.5	1	0.475498868620137	1	2	0.33321229997091	0.427079015617756	2	0
10	17	1	0.5	0.5	1	0.5556986751602967	1	2	0.3458198999869637	0.50628758088799	1	0
10	18	1	0.5	0.5	1	0.5078517694159732	1	2	0.3141427999944426	0.5892000670588136	2	0
10	19	1	0.5	0.5	1	0.4686761576194591	1	1	0.4279171000234783	0.5201222586869056	2	1
10	20	1	0.5	0.5	1	0.5034989474716696	1	2	0.6459001000039279	0.4267844688756293	1	0
11	1	2	0.1	0.6	2	0.5925205346246898	1	2	0.6961193999741226	0.58383251096197	1	1
11	2	2	0.1	0.6	2	0.4110468767744317	1	2	0.2918683000025339	0.5769094038583376	1	1
11	3	2	0.1	0.6	2	0.5475376702536292	1	2	0.2664857999770902	0.5585219732656048	1	1
11	4	2	0.1	0.6	2	0.4527725307033522	1	2	0.7188607000280172	0.4482640466239559	1	1
11	5	2	0.1	0.6	2	0.4539551365239804	1	1	0.3714554999605753	0.552097496337539	2	0
11	6	2	0.1	0.6	2	0.4244187870474785	1	1	0.277926100010518	0.5242563580343241	2	0
11	7	2	0.1	0.6	2	0.5352590776621208	1	2	0.2706763999885879	0.5007293068901021	2	1
11	8	2	0.1	0.6	2	0.5196709412148633	1	2	0.02700220001861453	0.4232188915442475	1	1
11	9	2	0.1	0.6	2	0.5474079410335464	1	1	0.4169192999834195	0.4364370679730049	2	0
11	10	2	0.1	0.6	2	0.454094000536505	1	2	0.2578137000091374	0.478077676991412	2	1
11	11	2	0.1	0.6	2	0.4419579691798298	1	2	0.3469603999983519	0.5590009963681375	1	1
11	12	2	0.1	0.6	2	0.5331415658119099	1	2	0.5307404000195675	0.5171802583524325	1	1
11	13	2	0.1	0.6	2	0.4963215241076466	1	2	0.4149994000326842	0.4350146777892411	1	1
11	14	2	0.1	0.6	2	0.5178879914299158	1	2	0.3877592000062577	0.4818625927549837	1	1
11	15	2	0.1	0.6	2	0.4056881748479901	1	2	0.2675783000304364	0.4326911759147958	1	1
11	16	2	0.1	0.6	2	0.5757166504457627	1	2	0.3922352000372484	0.5234221562536933	2	1
11	17	2	0.1	0.6	2	0.4557975794912791	1	2	0.3505367999896407	0.5501141985368925	1	1
11	18	2	0.1	0.6	2	0.4378433799660559	1	2	0.4431318999850191	0.4502477401156149	1	1
11	19	2	0.1	0.6	2	0.4718491980721046	1	2	0.327653799962718	0.53399690134328	1	1
11	20	2	0.1	0.6	2	0.5348366140491922	1	2	0.385327199997846	0.5750805040223176	2	1
12	1	2	0.6	0.1	1	0.49185467058118	1	1	0.3096027999999933	0.5335843730872305	1	1
12	2	2	0.6	0.1	1	0.518222681728018	1	1	0.2545588000211865	0.4715681807586362	1	1
12	3	2	0.6	0.1	1	0.4161256121584893	1	1	0.2977412999607623	0.4452538797310346	2	1
12	4	2	0.6	0.1	1	0.4702554572367604	1	1	0.2607764999847859	0.5660655483542731	2	1
12	5	2	0.6	0.1	1	0.4050514459617507	1	2	0.289401900023222	0.4839920472498787	2	0
12	6	2	0.6	0.1	1	0.5611877248139574	1	1	0.3589423000230454	0.4896727161505207	2	1
12	7	2	0.6	0.1	1	0.5710830037539598	1	1	0.1807451999629848	0.5533063506351168	1	1
12	8	2	0.6	0.1	1	0.5836188905685377	1	1	0.158106199989561	0.5288357044330435	1	1
12	9	2	0.6	0.1	1	0.5686156929598567	1	1	0.2468608999624848	0.4567678530343334	1	1
12	10	2	0.6	0.1	1	0.5689840474722672	1	1	0.5824502000468783	0.5452414203310951	1	1
12	11	2	0.6	0.1	1	0.5738759198630277	1	2	0.3581294000032358	0.4313789035511945	2	0
12	12	2	0.6	0.1	1	0.5972711882994447	1	2	0.2638176000327803	0.4435117069061213	2	0
12	13	2	0.6	0.1	1	0.4166923314984148	1	2	0.4020713000209071	0.499990304307399	2	0
12	14	2	0.6	0.1	1	0.4629797951259035	1	1	0.3584031999926083	0.526494023790602	2	1
12	15	2	0.6	0.1	1	0.4668990251278719	1	1	0.3025841000489891	0.4543296209335554	1	1
12	16	2	0.6	0.1	1	0.4665987635668099	1	1	0.3320891999755986	0.440005232347961	1	1
12	17	2	0.6	0.1	1	0.4781861688807223	1	1	0.1165350999799557	0.4032534666338958	1	1
12	18	2	0.6	0.1	1	0.4522766175838798	1	1	0.3141175999771804	0.4051277353452696	1	1
12	19	2	0.6	0.1	1	0.525965602061757	1	1	0.3069217000156641	0.4222118007924284	1	1
12	20	2	0.6	0.1	1	0.5515822275046408	1	1	0.3432441999902949	0.47490942204147	1	1
13	1	1	0.5	0.5	1	0.4491730251819668	1	1	0.5723161000059918	0.5001087377920997	2	1
13	2	1	0.5	0.5	1	0.4584529103112814	1	2	0.2976455999887548	0.432639486355599	1	0
13	3	1	0.5	0.5	1	0.437770871379408	1	2	0.3177459000144154	0.4370306818113828	1	0
13	4	1	0.5	0.5	1	0.4199932502861634	1	2	0.3197655999683775	0.5073470131650806	1	0
13	5	1	0.5	0.5	1	0.4216818220468124	1	2	0.2963861000025645	0.5038222256821083	2	0
13	6	1	0.5	0.5	1	0.5969990621490809	1	2	0.8447440000018105	0.5966170610280681	1	0
13	7	1	0.5	0.5	1	0.5897989615856216	1	2	0.368679000006523	0.4319322642503141	2	0
13	8	1	0.5	0.5	1	0.5153171176543421	1	2	0.3271237000008114	0.4881960372074646	2	0
13	9	1	0.5	0.5	1	0.5855907594224924	1	2	0.1237141000456177	0.4101578284937594	1	0
13	10	1	0.5	0.5	1	0.579706719772784	1	2	0.2874734000070021	0.5499148390900606	1	0
13	11	1	0.5	0.5	1	0.4795979132000074	1	2	0.6490503000095487	0.4135665927477713	1	0
13	12	1	0.5	0.5	1	0.5661144739962026	1	2	0.5025239000096917	0.4442518501357828	1	0
13	13	1	0.5	0.5	1	0.5964061451920062	1	2	0.377751599997282	0.4492944283269699	2	0
13	14	1	0.5	0.5	1	0.4323542462318029	1	2	0.3170338000054471	0.5484736408050725	1	0
13	15	1	0.5	0.5	1	0.4491399277268407	1	2	0.3625362000311725	0.4787049648790113	1	0
13	16	1	0.5	0.5	1	0.5944117544745664	1	2	0.4647045000456274	0.552843782855879	1	0
13	17	1	0.5	0.5	1	0.5028475238701985	1	2	0.4705807999707758	0.4397288077087459	2	0
13	18	1	0.5	0.5	1	0.4424810103706865	1	2	0.3746787999989465	0.4190144387211005	1	0
13	19	1	0.5	0.5	1	0.5803910974447112	1	2	0.5693439999595284	0.5876567515311971	2	0
13	20	1	0.5	0.5	1	0.5548131025438104	1	2	0.1461196999880485	0.5822500432578794	1	0
14	1	1	0.5	0.5	1	0.5665348342105523	1	2	0.3516934000072069	0.4233080672821524	2	0
14	2	1	0.5	0.5	1	0.4663304192930831	1	1	0.8085106000071391	0.5341743855464649	2	1
14	3	1	0.5	0.5	1	0.5682105170481673	1	2	0.0004359000013209879	0.5538074118580807	1	0
14	4	1	0.5	0.5	1	0.4453269009073621	1	2	0.3000455000437796	0.5432923305117278	1	0
14	5	1	0.5	0.5	1	0.4655109048036835	1	2	0.2736109999823384	0.4264128457607084	1	0
14	6	1	0.5	0.5	1	0.5419731801987357	1	2	0.2469589000102133	0.4448313621334502	2	0
14	7	1	0.5	0.5	1	0.5612654640836454	1	2	0.295657399983611	0.4770166943985248	1	0
14	8	1	0.5	0.5	1	0.4058596563470279	1	2	0.311522200005129	0.439633257128358	1	0
14	9	1	0.5	0.5	1	0.4369718937171839	1	1	0.3009381000301801	0.5041179730339325	2	1
14	10	1	0.5	0.5	1	0.4676500674791159	1	1	0.2061313000158407	0.4006202459789601	1	1
14	11	1	0.5	0.5	1	0.4362164884632787	1	2	0.2386587000219151	0.4229118197120521	2	0
14	12	1	0.5	0.5	1	0.4450443434865735	1	2	0.2822215000051074	0.5593982465909813	2	0
14	13	1	0.5	0.5	1	0.5786021170319576	1	2	0.3667424999875948	0.5706460215544569	1	0
14	14	1	0.5	0.5	1	0.4556073501342556	1	2	0.4370898999623023	0.5475036922975922	1	0
14	15	1	0.5	0.5	1	0.5096413334066942	1	2	0.3512315999832936	0.5976929234644331	1	0
14	16	1	0.5	0.5	1	0.4621309931897133	1	1	0.2594192000105977	0.5573096313985527	2	1
14	17	1	0.5	0.5	1	0.4696600464460636	1	1	0.2362081999890506	0.469161033491324	1	1
14	18	1	0.5	0.5	1	0.4291692477488263	1	2	0.5631958000012673	0.5748762363360361	1	0
14	19	1	0.5	0.5	1	0.5228994810617467	1	2	0.387871399987489	0.5252513720692473	1	0
14	20	1	0.5	0.5	1	0.4763035918920559	1	2	0.4296429000096396	0.5610224039294346	2	0
15	1	2	0.6	0.1	1	0.4510827381331057	1	2	0.6412828000029549	0.5975987196889635	1	0
15	2	2	0.6	0.1	1	0.5069158422806894	1	2	0.2882473999634385	0.4890358404526636	2	0
15	3	2	0.6	0.1	1	0.4901740139175785	1	2	0.6742235000128858	0.4204308027239849	2	0
15	4	2	0.6	0.1	1	0.4990878845265097	1	2	0.2946525000152178	0.4983811445746067	2	0
15	5	2	0.6	0.1	1	0.4873629711310526	1	2	0.4411375999916345	0.538776685803549	2	0
15	6	2	0.6	0.1	1	0.4556919173708235	1	2	0.3094308000290766	0.53419307890776	2	0
15	7	2	0.6	0.1	1	0.5345710361496745	1	2	0.2453463000128977	0.4726914314551811	2	0
15	8	2	0.6	0.1	1	0.4167701023659111	1	1	0.2746912000002339	0.4307328991565327	2	1
15	9	2	0.6	0.1	1	0.5515593004074586	1	2	0.5544012000318617	0.4690291307759105	2	0
15	10	2	0.6	0.1	1	0.540933529989547	1	1	0.2972613999736495	0.5950570584281386	1	1
15	11	2	0.6	0.1	1	0.5715132508205211	1	1	0.2735534999519587	0.4093858879098348	1	1
15	12	2	0.6	0.1	1	0.5817848975264804	1	1	0.5295785000198521	0.4682994628766265	1	1
15	13	2	0.6	0.1	1	0.5714407566467153	1	1	0.2926887000212446	0.414864797412138	1	1
15	14	2	0.6	0.1	1	0.5260117574868209	1	1	0.3509413999854587	0.5917591657580812	2	1
15	15	2	0.6	0.1	1	0.5452870854327883	1	1	0.2505100999842398	0.5401572952577992	2	1
15	16	2	0.6	0.1	1	0.5147471538436329	1	1	0.2903664999757893	0.4052908472536063	2	1
15	17	2	0.6	0.1	1	0.4703963247127207	1	1	0.1357098000007682	0.5296289856097459	1	1
15	18	2	0.6	0.1	1	0.4248710239389628	1	1	0.3198037999682128	0.5702895669701681	1	1
15	19	2	0.6	0.1	1	0.4488442651239749	1	1	0.3316947999992408	0.4256128695161985	1	1
15	20	2	0.6	0.1	1	0.5155586973856903	1	1	0.3027945999638177	0.5624196034920574	2	1
16	1	1	0.5	0.5	1	0.498381048786931	1	1	0.362105000007432	0.4178946255305708	1	1
16	2	1	0.5	0.5	1	0.5940797087967763	1	1	0.3051624000072479	0.5785751367226093	1	1
16	3	1	0.5	0.5	1	0.5641462285762615	1	1	0.5205708000576124	0.5558586617065379	1	1
16	4	1	0.5	0.5	1	0.4636815615751871	1	1	0.2510709000052884	0.4116649682723019	1	1
16	5	1	0.5	0.5	1	0.4623028761909872	1	1	0.3147500999621116	0.4848845421680255	2	1
16	6	1	0.5	0.5	1	0.5114142515774387	1	1	0.2667131999623962	0.4912934532800608	1	1
16	7	1	0.5	0.5	1	0.4486618125455732	1	1	0.2116666000219993	0.4769116985898162	1	1
16	8	1	0.5	0.5	1	0.563084221643776	1	1	0.4196088000317104	0.5256149661616819	1	1
16	9	1	0.5	0.5	1	0.595844164502941	1	1	0.3697716000024229	0.440627747409806	1	1
16	10	1	0.5	0.5	1	0.5114538328850405	1	2	0.3649799000122584	0.5897237615773736	2	0
16	11	1	0.5	0.5	1	0.5596525399896723	1	1	0.2273279000073671	0.5824826228892906	1	1
16	12	1	0.5	0.5	1	0.5704725921509201	1	1	0.3173224999918602	0.5004563941771092	2	1
16	13	1	0.5	0.5	1	0.5740432547990169	1	1	0.3258272000239231	0.5248158608389435	1	1
16	14	1	0.5	0.5	1	0.5070867219930382	1	1	0.3614420000230893	0.4289491252169284	2	1
16	15	1	0.5	0.5	1	0.4162557285800746	1	1	0.3236298999981955	0.4242540039323979	2	1
16	16	1	0.5	0.5	1	0.4983788928915723	1	1	0.0004052000003866851	0.5477369695608404	2	1
16	17	1	0.5	0.5	1	0.5941489280610742	1	1	0.400856499967631	0.4461067379586018	1	1
16	18	1	0.5	0.5	1	0.4620755807640882	1	1	0.9848727000062354	0.4936569128610326	1	1
16	19	1	0.5	0.5	1	0.4924674208119543	1	1	0.7947340999962762	0.5420043197710669	2	1
16	20	1	0.5	0.5	1	0.5640018162431696	1	1	0.4103488000109792	0.5596421400955084	2	1
17	1	2	0.1	0.6	2	0.4298780201072541	1	1	0.4673145999549888	0.5079363204090888	2	0
17	2	2	0.1	0.6	2	0.5496685480371526	1	2	0.4293831000104547	0.4574569727995496	2	1
17	3	2	0.1	0.6	2	0.5693384475653881	1	1	0.1223353000241332	0.5625405196895067	2	0
17	4	2	0.1	0.6	2	0.4304279311691322	1	1	0.3215443000080995	0.5476382908659455	2	0
17	5	2	0.1	0.6	2	0.4487648059051853	1	2	0.2046209000400268	0.4636576281030109	2	1
17	6	2	0.1	0.6	2	0.4837877782018766	1	1	0.9350707999547012	0.4201700194941053	2	0
17	7	2	0.1	0.6	2	0.4492061493410714	1	1	0.2588837000075728	0.4414440411429819	2	0
17	8	2	0.1	0.6	2	0.4382410296305438	1	1	0.444924799958244	0.4045587275314695	2	0
17	9	2	0.1	0.6	2	0.4345964123664121	1	1	0.6698084999807179	0.5052255395712246	1	0
17	10	2	0.1	0.6	2	0.4087766392092979	1	2	0.3137381999986246	0.4001858172168791	1	1
17	11	2	0.1	0.6	2	0.4781472736025273	1	2	0.3682891000062227	0.4486373947764153	1	1
17	12	2	0.1	0.6	2	0.5413517252580358	1	2	0.3436603000154719	0.4802875590642649	2	1
17	13	2	0.1	0.6	2	0.5613917358955111	1	2	0.4452178999781609	0.5360005382285987	1	1
17	14	2	0.1	0.6	2	0.550076146994912	1	2	0.3856894999626093	0.5115551141977408	2	1
17	15	2	0.1	0.6	2	0.4385696707354971	1	2	0.3320619000005536	0.4369925749171152	2	1
17	16	2	0.1	0.6	2	0.4004244789600437	1	1	0.3415442999685183	0.4067538269928869	2	0
17	17	2	0.1	0.6	2	0.5904483994116789	1	1	0.7845485999714583	0.404599869023707	2	0
17	18	2	0.1	0.6	2	0.5906746142809706	1	2	0.2879577999701723	0.5276778870426229	1	1
17	19	2	0.1	0.6	2	0.5633248424479971	1	2	0.4357569999992847	0.4943317428135043	1	1
17	20	2	0.1	0.6	2	0.5900153051912482	1	2	0.4683800000348128	0.5380647138188086	2	1
18	1	1	0.5	0.5	1	0.4074042572959473	1	1	0.3533384999609552	0.456388604727719	1	1
18	2	1	0.5	0.5	1	0.5660296591686773	1	2	0.2801349000073969	0.5302470526856568	2	0
18	3	1	0.5	0.5	1	0.4435172748083144	1	2	0.2390216999920085	0.4068421237055668	1	0
18	4	1	0.5	0.5	1	0.5778349049747766	1	2	0.3421327999676578	0.4812663597650223	2	0
18	5	1	0.5	0.5	1	0.5565668758407614	1	1	0.308921099989675	0.4479812292893235	2	1
18	6	1	0.5	0.5	1	0.5304943800321769	1	1	0.2178030999493785	0.402130648753705	2	1
18	7	1	0.5	0.5	1	0.4603962192156467	1	2	0.3003438000450842	0.4079668727378337	1	0
18	8	1	0.5	0.5	1	0.4064724329369965	1	2	0.5379355000331998	0.4449580852246732	1	0
18	9	1	0.5	0.5	1	0.4768498081204876	1	2	0.3391162999905646	0.5737390528798844	2	0
18	10	1	0.5	0.5	1	0.5348692807659909	1	2	0.4409149999846704	0.5579817762744776	1	0
18	11	1	0.5	0.5	1	0.5283056586341459	1	2	0.4679845999926329	0.5724303052961597	1	0
18	12	1	0.5	0.5	1	0.5099316370516909	1	2	0.538292300014291	0.401673179295833	1	0
18	13	1	0.5	0.5	1	0.4865286636114871	1	2	0.3992506000213325	0.5096176318899938	1	0
18	14	1	0.5	0.5	1	0.4232688778299706	1	2	0.5283490999718197	0.4833086813997755	2	0
18	15	1	0.5	0.5	1	0.4136633904190501	1	1	0.4690208999672905	0.480598740459364	1	1
18	16	1	0.5	0.5	1	0.5380734679057422	1	1	0.5970881999819539	0.4956092625931167	1	1
18	17	1	0.5	0.5	1	0.4349072983032823	1	1	0.3303957000025548	0.4390525079694682	2	1
18	18	1	0.5	0.5	1	0.5791136950304685	1	2	0.3145340000046417	0.5201043201729303	2	0
18	19	1	0.5	0.5	1	0.437790080647937	1	1	0.0003967999946326017	0.5664413489780884	1	1
18	20	1	0.5	0.5	1	0.471607645326059	1	1	0.0004100999794900417	0.5637524077244835	1	1
19	1	2	0.1	0.6	2	0.5199715829243036	1	1	0.3584822000120766	0.4402228386008002	2	0
19	2	2	0.1	0.6	2	0.5073594709248073	1	2	0.4320577000034973	0.4979151503153573	2	1
19	3	2	0.1	0.6	2	0.4251868091102551	1	2	0.2853454999858513	0.5515152651299442	1	1
19	4	2	0.1	0.6	2	0.487481175628467	1	2	0.2304242999525741	0.587478845217426	1	1
19	5	2	0.1	0.6	2	0.4117820740545016	1	2	0.1318640999961644	0.4693668546380482	1	1
19	6	2	0.1	0.6	2	0.5370646444530955	1	2	0.2705898000276648	0.4377971760750793	1	1
19	7	2	0.1	0.6	2	0.5214369121052403	1	2	0.2383325000409968	0.5333457933925999	1	1
19	8	2	0.1	0.6	2	0.4389108674012193	1	2	0.2912325999932364	0.5241603257150792	1	1
19	9	2	0.1	0.6	2	0.4892248891159879	1	2	0.1581699999514967	0.5473196131895698	1	1
19	10	2	0.1	0.6	2	0.4955360921627129	1	2	0.2825677000219002	0.5453074872764753	1	1
19	11	2	0.1	0.6	2	0.4320486024929361	1	2	0.2724609000142664	0.5389823298107682	1	1
19	12	2	0.1	0.6	2	0.5916550231157867	1	2	0.2002931999741122	0.5905133941946445	1	1
19	13	2	0.1	0.6	2	0.5338439217722691	1	2	0.3095134000177495	0.5336338120564239	2	1
19	14	2	0.1	0.6	2	0.4770176187767035	1	2	0.0003955999854952097	0.56110680978946	2	1
19	15	2	0.1	0.6	2	0.5035914432441588	1	1	0.6874896999797784	0.595475349226638	2	0
19	16	2	0.1	0.6	2	0.4798123216588049	1	2	0.3476818000199273	0.528053687260001	1	1
19	17	2	0.1	0.6	2	0.4243230563342192	1	2	0.4226365000358783	0.4588581680585098	1	1
19	18	2	0.1	0.6	2	0.5053478688034194	1	2	0.1818268999923021	0.5127237203058624	1	1
19	19	2	0.1	0.6	2	0.5337375037372418	1	2	0.3341559999971651	0.4205993177236171	2	1
19	20	2	0.1	0.6	2	0.5349405780153582	1	2	0.2979651999776252	0.5149430398277353	1	1
20	1	1	0.5	0.5	1	0.5570749718858349	1	1	0.4671339000342414	0.5656974103181784	1	1
20	2	1	0.5	0.5	1	0.5328048975894771	1	1	0.2131264999625273	0.445470551775122	2	1
20	3	1	0.5	0.5	1	0.4963627722648123	1	1	0.3967446999740787	0.4663854648427597	1	1
20	4	1	0.5	0.5	1	0.5353723423990056	1	1	0.3314738999470137	0.4034549664558845	2	1
20	5	1	0.5	0.5	1	0.5463689748245359	1	2	0.2727119000046514	0.5286939550628293	2	0
20	6	1	0.5	0.5	1	0.5889506333399299	1	1	0.5396229000180028	0.5713115733196494	2	1
20	7	1	0.5	0.5	1	0.5351133982780776	1	1	0.3519623000174761	0.4133398343471	2	1
20	8	1	0.5	0.5	1	0.5049056391057098	1	1	0.3204019999830052	0.5564744138266665	1	1
20	9	1	0.5	0.5	1	0.545920518498875	1	1	0.0004073999589309096	0.5283228279529848	1	1
20	10	1	0.5	0.5	1	0.4127198775979006	1	1	0.3088780000107363	0.5059340021765978	2	1
20	11	1	0.5	0.5	1	0.4465029828242085	1	2	0.3026291999849491	0.4029536730967319	1	0
20	12	1	0.5	0.5	1	0.4593811353827905	1	1	0.2722802999778651	0.5879146496212326	1	1
20	13	1	0.5	0.5	1	0.4072610106200388	1	1	0.2230979999876581	0.5564761543581314	2	1
20	14	1	0.5	0.5	1	0.4838559911973799	1	1	0.3906203999649733	0.4909132662497626	1	1
20	15	1	0.5	0.5	1	0.5659100970920119	1	2	0.2509665999677964	0.503340674022038	1	0
20	16	1	0.5	0.5	1	0.4123389984065381	1	1	0.3127979999990202	0.4652447185746003	2	1
20	17	1	0.5	0.5	1	0.4597730552235019	1	1	0.285003199998755	0.5821175125413223	1	1
20	18	1	0.5	0.5	1	0.5287046925855334	1	2	0.2955801999778487	0.5616183054227413	1	0
20	19	1	0.5	0.5	1	0.5058649174779573	1	2	0.3085434000240639	0.5026161394041051	1	0
20	20	1	0.5	0.5	1	0.5193642372473164	1	1	0.3163501000381075	0.5085247029221699	1	1
