blockNum	trialNum	condition	pWin1	pWin2	optimalResponse	preStimulusDelay	responded	response	rt	preFeedbackDelay	outcome	optimal
1	1	2	0.1	0.6	2	0.4134759174457591	0	n/a	n/a	n/a	n/a	n/a
1	2	2	0.1	0.6	2	0.5745742762867293	1	1	0.2990723997354507	0.5385607013533077	2	0
1	3	2	0.1	0.6	2	0.5473463864082115	1	2	0.2665389999747276	0.567169772384716	2	1
1	4	2	0.1	0.6	2	0.5275532970228376	1	1	0.2786447005346417	0.5893827359561106	2	0
1	5	2	0.1	0.6	2	0.4732431265787619	1	1	0.3934193998575211	0.4909507793540686	2	0
1	6	2	0.1	0.6	2	0.4856462095911604	1	2	0.2434173999354243	0.4579359090902911	2	1
1	7	2	0.1	0.6	2	0.4839940419149245	1	2	0.2598486999049783	0.5612532834412802	2	1
1	8	2	0.1	0.6	2	0.5659591436956849	1	2	0.4820836000144482	0.4950119485694172	2	1
1	9	2	0.1	0.6	2	0.5742882808690087	1	1	0.2362566003575921	0.4797460784511893	2	0
1	10	2	0.1	0.6	2	0.5242280941049102	1	1	0.7494749994948506	0.5433736468989828	2	0
1	11	2	0.1	0.6	2	0.4492260447865551	1	2	0.2834229003638029	0.4669959864324422	1	1
1	12	2	0.1	0.6	2	0.4920177877914361	1	2	0.3243745006620884	0.439339160033191	1	1
1	13	2	0.1	0.6	2	0.4283662835880195	1	2	0.4703804003074765	0.5696171464290634	1	1
1	14	2	0.1	0.6	2	0.4896321613506356	1	2	0.5253903996199369	0.407470557256082	1	1
1	15	2	0.1	0.6	2	0.5268546273406171	1	2	0.2327503999695182	0.5186100527524055	1	1
1	16	2	0.1	0.6	2	0.4296501415453376	1	2	0.3789963005110621	0.5835868103197321	1	1
1	17	2	0.1	0.6	2	0.4657509169631667	1	2	0.422838400118053	0.4323886534067705	2	1
1	18	2	0.1	0.6	2	0.4086270834856641	1	2	0.3852939000353217	0.5818801508795269	1	1
1	19	2	0.1	0.6	2	0.5658574119209498	1	2	0.305205499753356	0.5893578713319063	1	1
1	20	2	0.1	0.6	2	0.4356822896684797	1	2	0.301248399540782	0.4493549066593561	1	1
2	1	1	0.5	0.5	1	0.4377003117386365	1	1	0.7364712003618479	0.4857297982281256	1	1
2	2	1	0.5	0.5	1	0.4057405368993528	1	1	0.2316679991781712	0.5182510707853664	2	1
2	3	1	0.5	0.5	1	0.5510123867863415	1	1	0.2290295995771885	0.5541905004963706	2	1
2	4	1	0.5	0.5	1	0.4850196361522055	1	2	0.2829607995226979	0.4865137774487973	1	0
2	5	1	0.5	0.5	1	0.4110536165778227	1	2	0.2849185997620225	0.468746511370736	1	0
2	6	1	0.5	0.5	1	0.5382012837085947	1	2	0.270316700451076	0.5187383303014437	2	0
2	7	1	0.5	0.5	1	0.4915961974381533	1	2	0.2241030000150204	0.4783134006874925	2	0
2	8	1	0.5	0.5	1	0.5737978089672828	1	2	0.3048777999356389	0.5051092688276327	2	0
2	9	1	0.5	0.5	1	0.5930930754129792	1	1	0.2413528999313712	0.5525889475403329	2	1
2	10	1	0.5	0.5	1	0.4604870470535815	1	1	0.2754954993724823	0.4479190539051343	1	1
2	11	1	0.5	0.5	1	0.4610857477366189	1	1	0.3204669998958707	0.5153381006481983	1	1
2	12	1	0.5	0.5	1	0.4863489670195575	1	1	0.6558240996673703	0.5685280481315987	2	1
2	13	1	0.5	0.5	1	0.5978035928167703	1	1	0.4792550997808576	0.4641989734208224	2	1
2	14	1	0.5	0.5	1	0.5489955996979262	1	2	1.090551500208676	0.4649392036874304	2	0
2	15	1	0.5	0.5	1	0.4354489168429549	1	2	0.5439352001994848	0.4855007851774615	2	0
2	16	1	0.5	0.5	1	0.5986785204902225	1	2	0.3300904994830489	0.578492896147941	1	0
2	17	1	0.5	0.5	1	0.4984415599666828	1	2	0.3803884005174041	0.5399455925119385	2	0
2	18	1	0.5	0.5	1	0.4991677076174529	1	2	0.4786251001060009	0.5286562291701349	1	0
2	19	1	0.5	0.5	1	0.4203601475664716	1	2	0.4162178002297878	0.4340989530604825	1	0
2	20	1	0.5	0.5	1	0.4669085854123379	1	2	0.3150979001075029	0.5313099530815963	1	0
3	1	2	0.1	0.6	2	0.5550347047832309	1	1	0.3661151994019747	0.4225713577412422	2	0
3	2	2	0.1	0.6	2	0.5535072897380473	1	1	0.3748570997267962	0.5644603790539644	1	0
3	3	2	0.1	0.6	2	0.466767804772896	1	1	0.4493095995858312	0.5145854326902094	2	0
3	4	2	0.1	0.6	2	0.45822933705142	1	2	0.2802879996597767	0.5282023716382184	2	1
3	5	2	0.1	0.6	2	0.5312695063628312	1	2	0.2622702000662684	0.4171941939216349	2	1
3	6	2	0.1	0.6	2	0.5366650767237325	1	2	0.2555772997438908	0.5713091471739944	1	1
3	7	2	0.1	0.6	2	0.52694336565637	1	2	0.3700364995747805	0.5578347015411926	2	1
3	8	2	0.1	0.6	2	0.4741351737462238	1	2	0.2636350002139807	0.446743512474705	1	1
3	9	2	0.1	0.6	2	0.538917091257513	1	2	0.275572800077498	0.4316056752496107	1	1
3	10	2	0.1	0.6	2	0.5620345183087642	1	2	0.2563034994527698	0.5934699620513313	1	1
3	11	2	0.1	0.6	2	0.402234506614815	1	2	0.3414619006216526	0.4270979557427203	2	1
3	12	2	0.1	0.6	2	0.4468961957540711	1	2	0.1210759002715349	0.4499409104145469	2	1
3	13	2	0.1	0.6	2	0.5840437554086134	1	1	0.2548254998400807	0.5767856492901422	2	0
3	14	2	0.1	0.6	2	0.4346521159663197	1	1	0.2922799997031689	0.5111368928160243	2	0
3	15	2	0.1	0.6	2	0.5092078387446808	1	1	0.2834294997155666	0.5102546461296397	2	0
3	16	2	0.1	0.6	2	0.4669796026395586	1	2	0.3011607993394136	0.438216957420967	1	1
3	17	2	0.1	0.6	2	0.4518159983013084	1	2	0.3135815998539329	0.5644036173313822	1	1
3	18	2	0.1	0.6	2	0.4246674623199003	1	2	0.3636221000924706	0.5645131786185174	1	1
3	19	2	0.1	0.6	2	0.5565361544350447	1	2	0.2395401000976562	0.5403850718391021	1	1
3	20	2	0.1	0.6	2	0.4866579480857337	1	2	0.3586466005071998	0.5716797013382304	2	1
4	1	1	0.5	0.5	1	0.4278169438289002	1	1	1.009147900156677	0.5926516942534072	1	1
4	2	1	0.5	0.5	1	0.586032812145324	1	1	0.3058794001117349	0.4892731492255863	1	1
4	3	1	0.5	0.5	1	0.449969589760943	1	1	0.3589166002348065	0.4484881400348456	2	1
4	4	1	0.5	0.5	1	0.5754931501876419	1	1	0.2702077003195882	0.4420573616406399	1	1
4	5	1	0.5	0.5	1	0.5777740216083889	1	1	0.2801948003470898	0.5383858108158646	2	1
4	6	1	0.5	0.5	1	0.4087445112617957	1	1	0.4152274001389742	0.4650534194949693	1	1
4	7	1	0.5	0.5	1	0.4493123870565127	1	1	0.3095960998907685	0.5523794952353628	1	1
4	8	1	0.5	0.5	1	0.4561352634194383	1	1	0.2410441990941763	0.5454620081619403	2	1
4	9	1	0.5	0.5	1	0.5950292788136733	1	1	0.256496200338006	0.4121870009103371	2	1
4	10	1	0.5	0.5	1	0.5264866124458615	1	1	0.6176598006859422	0.4468275295875482	2	1
4	11	1	0.5	0.5	1	0.5186615770716848	1	2	0.2650362001731992	0.5436038127474228	2	0
4	12	1	0.5	0.5	1	0.5243100000188532	1	2	0.4589344002306461	0.4841885247695925	1	0
4	13	1	0.5	0.5	1	0.471318744383376	1	2	0.4876466998830438	0.5922851693743034	2	0
4	14	1	0.5	0.5	1	0.4756583926050207	1	1	0.2780846003443003	0.5841934946371442	1	1
4	15	1	0.5	0.5	1	0.438761566704418	1	1	0.5421425001695752	0.4817863094333296	2	1
4	16	1	0.5	0.5	1	0.4700436676201958	1	1	0.2509740004315972	0.5252041663940679	2	1
4	17	1	0.5	0.5	1	0.4816207297712065	1	1	0.3189177997410297	0.431563155265452	2	1
4	18	1	0.5	0.5	1	0.4671567984429111	1	1	0.581928800791502	0.4344161832919821	1	1
4	19	1	0.5	0.5	1	0.53502161957553	1	1	0.5266167996451259	0.4066194170685942	1	1
4	20	1	0.5	0.5	1	0.4445619268848037	1	1	0.4394409004598856	0.4321826172334766	2	1
5	1	2	0.1	0.6	2	0.4516952858592715	1	1	1.021970400586724	0.5223145077180744	2	0
5	2	2	0.1	0.6	2	0.4506018077115404	1	2	0.3045796006917953	0.5189867886765052	2	1
5	3	2	0.1	0.6	2	0.504919077840688	1	2	0.2447036998346448	0.5150918327917645	1	1
5	4	2	0.1	0.6	2	0.4346187471330435	1	2	0.2497225003316998	0.4927411802098137	2	1
5	5	2	0.1	0.6	2	0.4066313386515298	1	1	0.32286879979074	0.4932977564302298	2	0
5	6	2	0.1	0.6	2	0.4403183452523174	1	1	0.3643321003764868	0.4119926646538699	1	0
5	7	2	0.1	0.6	2	0.4711255882046639	1	1	0.4311873000115156	0.5377868384982367	2	0
5	8	2	0.1	0.6	2	0.5580567372775397	1	2	0.3673702999949455	0.5782223398278854	2	1
5	9	2	0.1	0.6	2	0.4489251408089915	1	2	0.3201989000663161	0.4021871283721297	1	1
5	10	2	0.1	0.6	2	0.43715179626609	1	2	0.2759104995056987	0.5993379025989234	1	1
5	11	2	0.1	0.6	2	0.409014797470721	1	2	0.3306995993480086	0.4974315646218789	1	1
5	12	2	0.1	0.6	2	0.576139726391216	1	2	0.3406841997057199	0.529066498767097	1	1
5	13	2	0.1	0.6	2	0.4383965871694274	1	2	0.3616565000265837	0.4252955553728185	1	1
5	14	2	0.1	0.6	2	0.4520364850143386	1	2	0.5027711000293493	0.4774531698012668	1	1
5	15	2	0.1	0.6	2	0.5435947576769986	1	2	0.3009759001433849	0.5383314156418523	1	1
5	16	2	0.1	0.6	2	0.5964846799672444	1	2	0.4569790000095963	0.4642472005483922	2	1
5	17	2	0.1	0.6	2	0.5711078331663912	1	2	0.4615452997386456	0.4880843104699106	2	1
5	18	2	0.1	0.6	2	0.4745232417996634	1	2	0.3615974001586437	0.5126807971370655	1	1
5	19	2	0.1	0.6	2	0.45030803321428	1	2	0.4417617004364729	0.4876126087213394	1	1
5	20	2	0.1	0.6	2	0.4238717435650572	1	2	0.4079702002927661	0.4681683238369341	1	1
6	1	1	0.5	0.5	1	0.5782342726912792	1	1	1.117528299801052	0.4956817274763027	1	1
6	2	1	0.5	0.5	1	0.4972065059631441	1	1	0.3491406999528408	0.5943389025648902	1	1
6	3	1	0.5	0.5	1	0.5745006204014274	1	1	0.2914558993652463	0.4228227735051441	2	1
6	4	1	0.5	0.5	1	0.5797450593830692	1	1	0.3089100001379848	0.4464648068670503	2	1
6	5	1	0.5	0.5	1	0.5577250341074103	1	1	0.4669313002377748	0.5179489568589106	1	1
6	6	1	0.5	0.5	1	0.4708713904829851	1	1	0.3882263004779816	0.4930761113607433	2	1
6	7	1	0.5	0.5	1	0.5338895231456159	1	1	0.259476600214839	0.4346827278791854	2	1
6	8	1	0.5	0.5	1	0.401096962248994	1	2	0.3505677999928594	0.4853966503255496	1	0
6	9	1	0.5	0.5	1	0.5068761481454338	1	2	0.2968036001548171	0.4957327214051539	1	0
6	10	1	0.5	0.5	1	0.5585277030358197	1	2	0.252127100713551	0.5415191303025559	2	0
6	11	1	0.5	0.5	1	0.4235571913476459	1	2	0.6848456002771854	0.509647286683965	1	0
6	12	1	0.5	0.5	1	0.4188044418921706	1	2	0.3366109002381563	0.5106843842128784	1	0
6	13	1	0.5	0.5	1	0.5061789141908212	1	2	0.3681774996221066	0.5915795517834472	2	0
6	14	1	0.5	0.5	1	0.4291513986538954	1	2	0.2860930003225803	0.4799035184462805	1	0
6	15	1	0.5	0.5	1	0.4444387901970331	1	2	0.4155986001715064	0.4667411092112795	2	0
6	16	1	0.5	0.5	1	0.5439424099899283	1	2	0.306356699205935	0.4674071033533232	1	0
6	17	1	0.5	0.5	1	0.5219687898831471	1	2	0.2948605995625257	0.5753026338636499	2	0
6	18	1	0.5	0.5	1	0.5910250008336793	1	2	0.3480585999786854	0.4466460195016515	2	0
6	19	1	0.5	0.5	1	0.43432718658269	1	2	0.2811324996873736	0.4337307906119013	2	0
6	20	1	0.5	0.5	1	0.5962467031090979	1	2	0.4175035003572702	0.4979000595800197	2	0
7	1	2	0.1	0.6	2	0.5947080832986018	1	1	1.658764100633562	0.4406328994384442	2	0
7	2	2	0.1	0.6	2	0.5025031459924552	1	1	0.299430999904871	0.5896719168399132	2	0
7	3	2	0.1	0.6	2	0.5888518227710267	1	1	0.116019600071013	0.5205731684094834	2	0
7	4	2	0.1	0.6	2	0.4398520452364078	1	2	0.2286975001916289	0.5410060578168208	1	1
7	5	2	0.1	0.6	2	0.4513795021912052	1	2	0.238799300044775	0.4565949484235505	2	1
7	6	2	0.1	0.6	2	0.5585052944668228	1	2	0.2867625001817942	0.4529395244221378	2	1
7	7	2	0.1	0.6	2	0.5045821876478079	1	2	0.5429716994985938	0.5535623707166114	1	1
7	8	2	0.1	0.6	2	0.5426702345761518	1	2	0.2518180999904871	0.4867218777734961	1	1
7	9	2	0.1	0.6	2	0.4390903095243019	1	2	0.3145468002185225	0.5249406848173047	1	1
7	10	2	0.1	0.6	2	0.5350488530496347	1	2	0.281436899676919	0.5189906928951441	2	1
7	11	2	0.1	0.6	2	0.4443499024846034	1	2	0.3485004007816315	0.592818858869666	2	1
7	12	2	0.1	0.6	2	0.5426999137773348	1	2	0.2703058002516627	0.5939182884831328	2	1
7	13	2	0.1	0.6	2	0.5351778591918627	1	1	0.3081348994746804	0.4189633479821009	1	0
7	14	2	0.1	0.6	2	0.5837767080903016	1	1	0.3171527003869414	0.5965646210216325	2	0
7	15	2	0.1	0.6	2	0.462040879433415	1	1	0.5653217993676662	0.5690109833809006	2	0
7	16	2	0.1	0.6	2	0.5318744527586668	1	2	0.417646000161767	0.5731590544261884	1	1
7	17	2	0.1	0.6	2	0.5591743473679318	1	2	0.3200877998024225	0.5338660987684192	1	1
7	18	2	0.1	0.6	2	0.4451161310425407	1	2	0.4285312993451953	0.54455017485644	2	1
7	19	2	0.1	0.6	2	0.5576471802493586	1	2	0.3462701998651028	0.5839480180108669	1	1
7	20	2	0.1	0.6	2	0.4545269523453295	1	2	0.6071063997223973	0.5038200840019034	1	1
8	1	2	0.1	0.6	2	0.5658547570021885	1	1	0.8582385005429387	0.5957498547748379	2	0
8	2	2	0.1	0.6	2	0.4813775898255433	1	1	0.7383744996041059	0.451561653810611	2	0
8	3	2	0.1	0.6	2	0.5078847311004	1	1	0.577211800031364	0.5832572620220016	1	0
8	4	2	0.1	0.6	2	0.5911420594694229	1	2	0.2992842001840472	0.470477383884555	2	1
8	5	2	0.1	0.6	2	0.5758097582937023	1	2	0.2855194006115198	0.459038949513943	1	1
8	6	2	0.1	0.6	2	0.4304879407417633	1	2	0.4532238999381661	0.5200349959530766	1	1
8	7	2	0.1	0.6	2	0.4615640875044063	1	2	0.3560840003192425	0.4183601430338827	2	1
8	8	2	0.1	0.6	2	0.4864871387703804	1	2	0.4209684999659657	0.4874450695736401	1	1
8	9	2	0.1	0.6	2	0.5717711165535065	1	2	0.4589724000543356	0.4446027562306902	1	1
8	10	2	0.1	0.6	2	0.5947159278414439	1	2	0.5211765002459288	0.512928073545516	2	1
8	11	2	0.1	0.6	2	0.5094998646744074	1	2	0.3478926997631788	0.4157250036140611	1	1
8	12	2	0.1	0.6	2	0.4151810566149813	1	2	0.4426941005513072	0.4976209779613446	1	1
8	13	2	0.1	0.6	2	0.4785846350749594	1	2	0.3664516005665064	0.4763842842184257	1	1
8	14	2	0.1	0.6	2	0.5878276385390786	1	2	0.5793886994943023	0.417552518472438	1	1
8	15	2	0.1	0.6	2	0.434059252806216	1	2	0.5669940998777747	0.4376645850640796	2	1
8	16	2	0.1	0.6	2	0.5739735661094054	1	2	1.832980999723077	0.5617325272678531	1	1
8	17	2	0.1	0.6	2	0.562822613468393	1	2	0.5308794006705284	0.5322724389415711	1	1
8	18	2	0.1	0.6	2	0.564663182760797	1	2	0.5219898000359535	0.4714855743740984	1	1
8	19	2	0.1	0.6	2	0.4657539463761466	1	2	0.4628574997186661	0.4571640175475291	2	1
8	20	2	0.1	0.6	2	0.5244114472643416	1	2	0.6068408004939556	0.4185610238598014	2	1
9	1	1	0.5	0.5	1	0.4596209312023553	1	1	1.299964999780059	0.597240047552371	1	1
9	2	1	0.5	0.5	1	0.4435187877419478	1	1	0.2993449997156858	0.4846139950732513	2	1
9	3	1	0.5	0.5	1	0.4808584777321621	1	1	0.335776099935174	0.5528235020139195	2	1
9	4	1	0.5	0.5	1	0.4413978827450118	1	2	0.2976430002599955	0.4695373985273831	1	0
9	5	1	0.5	0.5	1	0.4630889723339044	1	2	0.0299455001950264	0.5355786527655543	2	0
9	6	1	0.5	0.5	1	0.4317900916735066	1	2	0.2869228003546596	0.4806859220682478	2	0
9	7	1	0.5	0.5	1	0.4301033617210313	1	1	0.3457361999899149	0.5054861681542805	2	1
9	8	1	0.5	0.5	1	0.5631477601802856	1	1	0.3445656001567841	0.5811182125274752	1	1
9	9	1	0.5	0.5	1	0.4253040573545935	1	1	0.2775851991027594	0.5156127628475932	1	1
9	10	1	0.5	0.5	1	0.5992545181593243	1	1	0.3124919999390841	0.518377117596493	2	1
9	11	1	0.5	0.5	1	0.5258086742599836	1	1	0.2285753004252911	0.4506634828636906	2	1
9	12	1	0.5	0.5	1	0.4722253408118081	1	1	0.3255785005167127	0.4054681516531896	1	1
9	13	1	0.5	0.5	1	0.5225210028945704	1	2	0.3715979000553489	0.5256666096229942	1	0
9	14	1	0.5	0.5	1	0.4035696922678935	1	2	0.4551701005548239	0.5687790811098861	1	0
9	15	1	0.5	0.5	1	0.4344724808338167	1	2	0.3309709997847676	0.5388384309596126	2	0
9	16	1	0.5	0.5	1	0.5641633037005094	1	2	0.2732444005087018	0.4930410713818021	2	0
9	17	1	0.5	0.5	1	0.4115379838412053	1	2	0.4719146005809307	0.5058237799144166	2	0
9	18	1	0.5	0.5	1	0.4183657407884107	1	2	0.6916768997907639	0.4319050409677405	1	0
9	19	1	0.5	0.5	1	0.5212999945562654	1	1	0.3298468003049493	0.5012699022020695	1	1
9	20	1	0.5	0.5	1	0.425594054611417	1	1	0.4686083002015948	0.5798305050227995	2	1
10	1	1	0.5	0.5	1	0.5228907968271331	1	1	1.168517399579287	0.5466698362408416	1	1
10	2	1	0.5	0.5	1	0.5566351062228456	1	1	0.2869977001100779	0.5155072751219406	2	1
10	3	1	0.5	0.5	1	0.5709200485058539	1	1	0.3725177999585867	0.4820577303863288	1	1
10	4	1	0.5	0.5	1	0.5618826851218346	1	1	1.250156500376761	0.4579088423560448	1	1
10	5	1	0.5	0.5	1	0.4679579672508065	1	1	0.3848908999934793	0.4276294004768215	2	1
10	6	1	0.5	0.5	1	0.4979707302350181	1	1	0.4041963992640376	0.5864528284942483	1	1
10	7	1	0.5	0.5	1	0.561021617064586	1	1	0.3102206001058221	0.5776271922985595	1	1
10	8	1	0.5	0.5	1	0.4953589458838092	1	1	0.3017645999789238	0.4584230623417841	2	1
10	9	1	0.5	0.5	1	0.4828042680382442	1	1	0.2976069003343582	0.5488183732276088	2	1
10	10	1	0.5	0.5	1	0.4467766823039305	1	1	0.5478885006159544	0.4631783732216646	1	1
10	11	1	0.5	0.5	1	0.5354057936021503	1	1	0.4175987001508474	0.5435526423218209	1	1
10	12	1	0.5	0.5	1	0.5242375583572516	1	1	0.4244230007752776	0.5778345467124253	2	1
10	13	1	0.5	0.5	1	0.5095479336522368	1	1	0.3101485008373857	0.5986665762386111	2	1
10	14	1	0.5	0.5	1	0.5833861694544239	1	1	0.2713147001340985	0.5215288304729089	1	1
10	15	1	0.5	0.5	1	0.5387550662442631	1	1	0.4036548007279634	0.4929609667615739	2	1
10	16	1	0.5	0.5	1	0.5580531386741232	1	1	0.7729907995089889	0.4444915962751065	1	1
10	17	1	0.5	0.5	1	0.5407425664009186	1	1	0.43032839987427	0.4784697453295204	1	1
10	18	1	0.5	0.5	1	0.4402420231854487	1	1	0.3432888006791472	0.4858622836447151	1	1
10	19	1	0.5	0.5	1	0.4712266374672964	1	1	0.3643442001193762	0.4505124300314314	2	1
10	20	1	0.5	0.5	1	0.5229147546375583	1	1	0.3075032001361251	0.4568074824628376	1	1
11	1	2	0.6	0.1	1	0.4041390351709878	1	1	1.058713299222291	0.4471140648677677	2	1
11	2	2	0.6	0.1	1	0.4220414290744962	1	1	1.065623300150037	0.5206612258566981	2	1
11	3	2	0.6	0.1	1	0.4524898092549165	1	1	0.4506108993664384	0.5638317077107156	1	1
11	4	2	0.6	0.1	1	0.5937026882127548	1	2	0.2956328997388482	0.5635001635299227	2	0
11	5	2	0.6	0.1	1	0.5081630364858429	1	2	0.4431942002847791	0.4991677237893104	2	0
11	6	2	0.6	0.1	1	0.4576451844570579	1	2	0.3006402999162674	0.5112671961069341	2	0
11	7	2	0.6	0.1	1	0.5141155611929948	1	1	0.2659571003168821	0.4609537357940336	1	1
11	8	2	0.6	0.1	1	0.5685811773128816	1	1	0.03078780043870211	0.4804501951837076	1	1
11	9	2	0.6	0.1	1	0.5369113753990955	1	1	0.2602209998294711	0.4618198850804891	2	1
11	10	2	0.6	0.1	1	0.4141954920173768	1	1	0.6706876000389457	0.4651566810532224	1	1
11	11	2	0.6	0.1	1	0.447489412675946	1	1	0.4465162996202707	0.4350669875668332	2	1
11	12	2	0.6	0.1	1	0.5101746696439589	1	1	0.3486077999696136	0.4277480162084945	1	1
11	13	2	0.6	0.1	1	0.4789644405953496	1	1	0.4611322991549969	0.5887461407234453	1	1
11	14	2	0.6	0.1	1	0.5793248209308275	1	1	0.5888315998017788	0.5101857603483322	1	1
11	15	2	0.6	0.1	1	0.4971058731297865	1	1	0.5859791999682784	0.5793348566354809	1	1
11	16	2	0.6	0.1	1	0.4057597413477768	1	1	0.923917100764811	0.5836616473670408	1	1
11	17	2	0.6	0.1	1	0.4552435843823951	1	1	0.432922599837184	0.5886624976320453	1	1
11	18	2	0.6	0.1	1	0.4549641412851697	1	1	0.5148742003366351	0.4333562545645464	1	1
11	19	2	0.6	0.1	1	0.4682287860997271	1	1	0.885168400593102	0.4212484692910555	1	1
11	20	2	0.6	0.1	1	0.4029992921866932	1	1	0.742680000141263	0.5153935407104038	2	1
12	1	1	0.5	0.5	1	0.5329194681014933	1	1	0.61011360026896	0.5097675350261868	2	1
12	2	1	0.5	0.5	1	0.4718275693973227	1	1	0.3532630996778607	0.5941465772200638	2	1
12	3	1	0.5	0.5	1	0.5544830306757714	1	1	0.5075257001444697	0.5937023842900464	2	1
12	4	1	0.5	0.5	1	0.4250746289362051	1	2	0.4827921995893121	0.542857417229809	1	0
12	5	1	0.5	0.5	1	0.4874569905103528	1	2	0.2520228000357747	0.4444131180650204	1	0
12	6	1	0.5	0.5	1	0.4721828491180573	1	2	0.3305778000503778	0.4942225444219305	1	0
12	7	1	0.5	0.5	1	0.4820536919897285	1	2	0.4338792003691196	0.4562799498576173	2	0
12	8	1	0.5	0.5	1	0.4195566391272628	1	2	0.8784161005169153	0.5847615249089519	1	0
12	9	1	0.5	0.5	1	0.438809304356565	1	2	0.8155410001054406	0.4195409204944443	1	0
12	10	1	0.5	0.5	1	0.4730967841794418	1	2	1.00288899987936	0.4456744829723323	1	0
12	11	1	0.5	0.5	1	0.4313809347391702	1	2	0.9560236996039748	0.4020997494767545	1	0
12	12	1	0.5	0.5	1	0.5405194754738836	1	2	0.6803953005000949	0.454869192168999	2	0
12	13	1	0.5	0.5	1	0.4937394377401073	1	2	0.486051800660789	0.529289966872091	1	0
12	14	1	0.5	0.5	1	0.5782558008214964	1	2	0.337028400041163	0.5717761976518012	2	0
12	15	1	0.5	0.5	1	0.5573604316692121	1	2	0.2989603998139501	0.4684356599909806	2	0
12	16	1	0.5	0.5	1	0.5890821254820071	1	1	0.2453812006860971	0.46031139859399	1	1
12	17	1	0.5	0.5	1	0.5916030930521766	1	1	0.6460467996075749	0.5889173647640642	1	1
12	18	1	0.5	0.5	1	0.5960658620304311	1	1	0.4158944003283978	0.5984681271035637	1	1
12	19	1	0.5	0.5	1	0.5898712563396884	1	1	0.7303067008033395	0.4118913931783925	1	1
12	20	1	0.5	0.5	1	0.4142589953308462	1	1	0.4668420003727078	0.5828965002026453	2	1
13	1	2	0.6	0.1	1	0.5640272825233884	1	1	1.017514299601316	0.5364634380664739	1	1
13	2	2	0.6	0.1	1	0.5026201135683882	1	1	0.580855100415647	0.5574491718597362	1	1
13	3	2	0.6	0.1	1	0.4503795530875223	1	1	0.506110000424087	0.4463358819210113	2	1
13	4	2	0.6	0.1	1	0.5899529678845332	1	2	0.3924381993710995	0.5790522288243587	2	0
13	5	2	0.6	0.1	1	0.444303280678049	1	2	0.4033452998846769	0.4633136480358735	2	0
13	6	2	0.6	0.1	1	0.4655328071571979	1	2	0.5769290998578072	0.4923440865110676	2	0
13	7	2	0.6	0.1	1	0.4338627242708803	1	1	0.2846798002719879	0.4763478051650268	1	1
13	8	2	0.6	0.1	1	0.5955923644913567	1	1	0.2903724992647767	0.4957032840045164	1	1
13	9	2	0.6	0.1	1	0.5788941584764157	1	1	0.2490164004266262	0.502874736209117	2	1
13	10	2	0.6	0.1	1	0.4765408913612787	1	1	0.366274700500071	0.537609338077225	2	1
13	11	2	0.6	0.1	1	0.4418386454595371	1	1	0.268758699297905	0.5597846794690335	1	1
13	12	2	0.6	0.1	1	0.5618161808990172	1	1	0.2596229007467628	0.5906463736215233	2	1
13	13	2	0.6	0.1	1	0.4233040180717977	1	2	0.2762063993141055	0.5204343380856506	2	0
13	14	2	0.6	0.1	1	0.592127187707904	1	2	0.2280644001439214	0.5408937169946213	2	0
13	15	2	0.6	0.1	1	0.4416486878284216	1	1	0.3578901002183557	0.5394429275441793	1	1
13	16	2	0.6	0.1	1	0.5320837311355728	1	1	0.3224106002599001	0.4995884974641526	1	1
13	17	2	0.6	0.1	1	0.5073940151931765	1	1	0.001166500151157379	0.4300535518969282	1	1
13	18	2	0.6	0.1	1	0.5812598122426896	1	1	0.2819738993421197	0.5280500791529	2	1
13	19	2	0.6	0.1	1	0.5082651471168586	1	1	0.000594000332057476	0.5334510354813335	2	1
13	20	2	0.6	0.1	1	0.5895619866594461	1	2	0.5473284991458058	0.4908453256672752	2	0
14	1	1	0.5	0.5	1	0.5431205723515919	1	1	1.096530400216579	0.5243471360294049	2	1
14	2	1	0.5	0.5	1	0.5641353440921646	1	1	0.2291884003207088	0.5146088222420981	1	1
14	3	1	0.5	0.5	1	0.5353548064953739	1	1	0.3742123004049063	0.4273790880055665	2	1
14	4	1	0.5	0.5	1	0.5360177186806125	1	1	0.2132035000249743	0.5009427660351318	1	1
14	5	1	0.5	0.5	1	0.5675757893993176	1	1	0.3628564001992345	0.5301685379833295	1	1
14	6	1	0.5	0.5	1	0.4051320688843986	1	1	0.3601969992741942	0.4334171828105063	2	1
14	7	1	0.5	0.5	1	0.4918055893803145	1	1	0.4721210999414325	0.5648985731328519	2	1
14	8	1	0.5	0.5	1	0.4016871891133884	1	1	0.3042895998805761	0.5693164792735569	1	1
14	9	1	0.5	0.5	1	0.4284578892594947	1	1	0.4712709002196789	0.5351574076735317	2	1
14	10	1	0.5	0.5	1	0.5507964351086053	1	1	0.001206399872899055	0.4764892083533092	1	1
14	11	1	0.5	0.5	1	0.5312588286565427	1	1	0.4086969997733831	0.4250055802219108	1	1
14	12	1	0.5	0.5	1	0.4697411444227709	1	1	0.3922830997034907	0.5481898816614708	1	1
14	13	1	0.5	0.5	1	0.4451771648914675	1	1	0.5374875003471971	0.5024292645963152	2	1
14	14	1	0.5	0.5	1	0.4059060352442335	1	1	0.2741729998961091	0.5986785990506709	1	1
14	15	1	0.5	0.5	1	0.5810330596444913	1	1	0.6150452997535467	0.5633527782993425	2	1
14	16	1	0.5	0.5	1	0.4126792471252719	1	1	0.9750853003934026	0.5064647642178299	1	1
14	17	1	0.5	0.5	1	0.5841111025211103	1	1	0.5681737000122666	0.5590671320804533	1	1
14	18	1	0.5	0.5	1	0.4071903039070903	1	1	0.8815676998347044	0.4499584914431591	1	1
14	19	1	0.5	0.5	1	0.4867268520740376	1	1	0.9555790992453694	0.4229200263365551	2	1
14	20	1	0.5	0.5	1	0.4170695582672691	1	1	0.4785046000033617	0.5140910899438179	1	1
15	1	2	0.1	0.6	2	0.559144100160625	1	1	1.61842339951545	0.5959451585953108	2	0
15	2	2	0.1	0.6	2	0.5176373514400759	1	1	0.508806299418211	0.5573311202905984	2	0
15	3	2	0.1	0.6	2	0.5683511393645251	1	2	0.2555953003466129	0.4724306739444183	2	1
15	4	2	0.1	0.6	2	0.545827569392911	1	2	0.3371562995016575	0.4264025771798203	2	1
15	5	2	0.1	0.6	2	0.4815894658751679	1	1	0.2740913992747664	0.4452818431443534	1	0
15	6	2	0.1	0.6	2	0.5635040618221717	1	1	0.3798464005813003	0.5381579583650582	2	0
15	7	2	0.1	0.6	2	0.5273403298634121	1	1	0.4237772999331355	0.4417218054873658	2	0
15	8	2	0.1	0.6	2	0.4223483705888333	1	1	1.132748300209641	0.4219273184889462	2	0
15	9	2	0.1	0.6	2	0.5962422863730539	1	2	0.2835336001589894	0.591396588463148	1	1
15	10	2	0.1	0.6	2	0.5572982665211407	1	2	0.634468199685216	0.5254505466565978	2	1
15	11	2	0.1	0.6	2	0.4196278447309734	1	2	0.2997641004621983	0.445855797715737	1	1
15	12	2	0.1	0.6	2	0.4606705145724397	1	2	0.2918180003762245	0.5478137105046524	1	1
15	13	2	0.1	0.6	2	0.5844499250158235	1	2	0.3322454001754522	0.5774638596316125	1	1
15	14	2	0.1	0.6	2	0.4826497743733568	1	2	0.4469320001080632	0.5616669337266831	1	1
15	15	2	0.1	0.6	2	0.4919147736306371	1	2	0.4434764003381133	0.5271510830603008	2	1
15	16	2	0.1	0.6	2	0.5020916140628853	1	2	0.3573524001985788	0.5799251314207775	2	1
15	17	2	0.1	0.6	2	0.4345722604377891	1	2	0.04773920029401779	0.5115337278644166	1	1
15	18	2	0.1	0.6	2	0.4340983122339735	1	2	0.5942355999723077	0.5005575162554639	1	1
15	19	2	0.1	0.6	2	0.5788276334694171	1	2	0.9027847005054355	0.4863541940272192	1	1
15	20	2	0.1	0.6	2	0.5580098086451948	1	2	0.8086411003023386	0.4705758946912273	2	1
16	1	1	0.5	0.5	1	0.4362557460968124	1	1	1.055308900773525	0.4799531287847407	1	1
16	2	1	0.5	0.5	1	0.4112235741831325	1	1	0.2579096993431449	0.4500386135364807	1	1
16	3	1	0.5	0.5	1	0.5796042271862121	1	1	0.2894736994057894	0.4730075612744664	2	1
16	4	1	0.5	0.5	1	0.5179080857760228	1	1	0.005577700212597847	0.5321265160709425	1	1
16	5	1	0.5	0.5	1	0.5241050792461759	1	1	0.2696147002279758	0.5677129185283525	2	1
16	6	1	0.5	0.5	1	0.4743366844391407	1	1	0.2831388004124165	0.5749006820207865	1	1
16	7	1	0.5	0.5	1	0.5446020504121304	1	1	0.2666790001094341	0.4613514477531271	1	1
16	8	1	0.5	0.5	1	0.485839805933341	1	1	0.3252787999808788	0.4515819409149503	2	1
16	9	1	0.5	0.5	1	0.5497375243023284	1	1	0.4379007006064057	0.5783456180110349	1	1
16	10	1	0.5	0.5	1	0.5278537010635578	1	1	0.4521402008831501	0.5939028549115946	2	1
16	11	1	0.5	0.5	1	0.4101488392018047	1	1	0.3533693999052048	0.4080650187184225	2	1
16	12	1	0.5	0.5	1	0.5893195282553106	1	1	0.5096152992919087	0.5440574143794406	1	1
16	13	1	0.5	0.5	1	0.4633675214088628	1	2	1.896962200291455	0.5485432373134226	2	0
16	14	1	0.5	0.5	1	0.5363329885652105	1	1	0.2634832998737693	0.5274347002150698	2	1
16	15	1	0.5	0.5	1	0.4982703359448848	1	1	0.4202517000958323	0.5966145633770847	1	1
16	16	1	0.5	0.5	1	0.560540091553611	1	1	0.2626465000212193	0.5365078417822181	1	1
16	17	1	0.5	0.5	1	0.5549587098562564	1	1	0.306097200140357	0.5177170201674911	1	1
16	18	1	0.5	0.5	1	0.498151812345313	1	1	0.3632099004462361	0.4935089006393725	2	1
16	19	1	0.5	0.5	1	0.4751799269786957	1	1	0.4734406005591154	0.5444560167204144	1	1
16	20	1	0.5	0.5	1	0.5233483600592915	1	1	0.6511575002223253	0.5574189811035934	1	1
17	1	2	0.1	0.6	2	0.5378257695526709	1	1	0.5215503005310893	0.468498916325933	2	0
17	2	2	0.1	0.6	2	0.5825217435307489	1	1	0.5023916000500321	0.5240660361522508	1	0
17	3	2	0.1	0.6	2	0.5556190728618752	1	1	0.3034306997433305	0.5501748085259668	2	0
17	4	2	0.1	0.6	2	0.4293355959537174	1	1	0.4132484998553991	0.47824521205291	2	0
17	5	2	0.1	0.6	2	0.5318467290506619	1	2	0.360975899733603	0.4253977242095936	1	1
17	6	2	0.1	0.6	2	0.5195780604828124	1	2	0.4137372998520732	0.4259136457005741	1	1
17	7	2	0.1	0.6	2	0.591282050231449	1	2	0.8828015998005867	0.4337063951974292	1	1
17	8	2	0.1	0.6	2	0.4305123113866732	1	2	0.6196017004549503	0.5005847579933849	2	1
17	9	2	0.1	0.6	2	0.5243421658375744	1	2	0.285725699737668	0.5139863551389299	2	1
17	10	2	0.1	0.6	2	0.5159978273086745	1	1	0.2506819004192948	0.4495406655808372	2	0
17	11	2	0.1	0.6	2	0.4504578027851847	1	1	0.2601953996345401	0.4947056878986611	2	0
17	12	2	0.1	0.6	2	0.4746260123149378	1	2	0.2686871998012066	0.4198215262208587	1	1
17	13	2	0.1	0.6	2	0.5956775960515556	1	2	0.4493591003119946	0.5473746575871974	1	1
17	14	2	0.1	0.6	2	0.5694213169030626	1	2	0.6795579995959997	0.4457429625798462	1	1
17	15	2	0.1	0.6	2	0.5995662339527017	1	2	0.5264961002394557	0.4287644835239477	1	1
17	16	2	0.1	0.6	2	0.5772125831492788	1	2	0.6136881001293659	0.4404865675661482	2	1
17	17	2	0.1	0.6	2	0.4824856681682776	1	2	1.216753800399601	0.4678108018127337	2	1
17	18	2	0.1	0.6	2	0.4745488598379007	1	2	1.146668700501323	0.4859680797988682	2	1
17	19	2	0.1	0.6	2	0.4424849144482532	1	1	0.7055594995617867	0.4066374654553243	2	0
17	20	2	0.1	0.6	2	0.4255747992082304	1	2	1.639927599579096	0.5326424505273534	1	1
18	1	2	0.6	0.1	1	0.4990220378785416	1	1	0.5989912999793887	0.5945836116196859	2	1
18	2	2	0.6	0.1	1	0.4065370418007205	1	1	0.381394799798727	0.4045946483838682	2	1
18	3	2	0.6	0.1	1	0.4602263407378148	1	2	0.4164092000573874	0.5093313442482661	2	0
18	4	2	0.6	0.1	1	0.5599981693945805	1	2	0.5864744000136852	0.5529067503028444	2	0
18	5	2	0.6	0.1	1	0.4812119382295525	1	1	0.5452668005600572	0.4016126374013145	1	1
18	6	2	0.6	0.1	1	0.4208828987612415	1	1	0.4927158998325467	0.5314320327056478	1	1
18	7	2	0.6	0.1	1	0.4073430555559554	1	1	0.4269166002050042	0.5477751420775587	2	1
18	8	2	0.6	0.1	1	0.4902520085879813	1	1	0.3143408996984363	0.4487633529110381	1	1
18	9	2	0.6	0.1	1	0.5421700349758447	1	1	0.4445139998570085	0.5452171602561258	1	1
18	10	2	0.6	0.1	1	0.5405224054068655	1	1	0.5113608008250594	0.4327361962339097	1	1
18	11	2	0.6	0.1	1	0.404419058526735	1	1	0.3503258004784584	0.5587509542556657	1	1
18	12	2	0.6	0.1	1	0.5759255155447637	1	1	0.0004254002124071121	0.489615324716946	1	1
18	13	2	0.6	0.1	1	0.4162768821572848	1	1	0.4292651992291212	0.5517468300404011	1	1
18	14	2	0.6	0.1	1	0.4771724831991739	1	1	0.2860947996377945	0.4720182770603642	2	1
18	15	2	0.6	0.1	1	0.4901593016595729	1	1	0.0009107999503612518	0.5678820519358145	1	1
18	16	2	0.6	0.1	1	0.584877603304669	1	1	0.0007060999050736427	0.5237663358061272	1	1
18	17	2	0.6	0.1	1	0.4038764546899221	1	1	0.4431250998750329	0.4734909946074772	1	1
18	18	2	0.6	0.1	1	0.5501444323486485	1	1	0.242038200609386	0.4085042050214895	2	1
18	19	2	0.6	0.1	1	0.5648291882286938	1	1	0.3394153993576765	0.4437719509655016	1	1
18	20	2	0.6	0.1	1	0.4807828096711406	1	1	0.5255955001339316	0.4268164253232918	1	1
19	1	1	0.5	0.5	1	0.4616397840628412	1	1	0.557608200237155	0.5424053856352165	1	1
19	2	1	0.5	0.5	1	0.5572176656503322	1	1	0.7096561994403601	0.4226006264747412	1	1
19	3	1	0.5	0.5	1	0.5441354420523816	1	1	0.3774405997246504	0.5308452021313352	1	1
19	4	1	0.5	0.5	1	0.5757329856858021	1	1	0.4157400000840425	0.5722483424673059	2	1
19	5	1	0.5	0.5	1	0.5505709869897847	1	1	0.3021673997864127	0.550084751097722	2	1
19	6	1	0.5	0.5	1	0.5773496297972818	1	2	0.2856490006670356	0.5289493276258442	2	0
19	7	1	0.5	0.5	1	0.5137480972616524	1	2	0.5295089995488524	0.4897729708257196	1	0
19	8	1	0.5	0.5	1	0.5153737202960182	1	2	0.5215027006343007	0.4730210461677813	1	0
19	9	1	0.5	0.5	1	0.4430101644227538	1	2	0.4185303002595901	0.5663540990624122	2	0
19	10	1	0.5	0.5	1	0.5281988813228882	1	2	0.3462347006425261	0.561182521401723	1	0
19	11	1	0.5	0.5	1	0.5878999738813724	1	2	0.09406640008091927	0.5753309300450191	2	0
19	12	1	0.5	0.5	1	0.4587877510909876	1	2	0.272350799292326	0.5794695331125683	1	0
19	13	1	0.5	0.5	1	0.4074729385470374	1	2	0.4471718994900584	0.4105868571165187	2	0
19	14	1	0.5	0.5	1	0.4390932546362201	1	2	0.8095228997990489	0.5517909032165763	2	0
19	15	1	0.5	0.5	1	0.5344527929586524	1	1	0.2755725001916289	0.55179640772658	2	1
19	16	1	0.5	0.5	1	0.4607812659768237	1	1	0.5877490006387234	0.4253153315967175	1	1
19	17	1	0.5	0.5	1	0.4203365098616007	1	1	1.149282700382173	0.5861189347129383	2	1
19	18	1	0.5	0.5	1	0.515134880287257	1	1	0.7205750998109579	0.4958274405632437	1	1
19	19	1	0.5	0.5	1	0.5957993345319411	1	1	0.7426213994622231	0.5977750058404364	2	1
19	20	1	0.5	0.5	1	0.4714406261723165	1	1	0.4557233992964029	0.4817025101678264	2	1
20	1	1	0.5	0.5	1	0.5515463289002219	1	1	0.8076450005173683	0.4834919039439891	2	1
20	2	1	0.5	0.5	1	0.5828189565131677	1	1	0.4331733006983995	0.5698643195104746	2	1
20	3	1	0.5	0.5	1	0.4008371232211718	1	2	0.9446704993024468	0.4096803834438692	1	0
20	4	1	0.5	0.5	1	0.5665373737753953	1	2	0.4497616998851299	0.5285266349766949	1	0
20	5	1	0.5	0.5	1	0.4289391156055228	1	2	0.3581520998850465	0.497688162886096	1	0
20	6	1	0.5	0.5	1	0.4940148778178174	1	2	0.478775099851191	0.5678523232220882	1	0
20	7	1	0.5	0.5	1	0.5062226476401266	1	2	0.286786500364542	0.4696684444950559	2	0
20	8	1	0.5	0.5	1	0.5687590134875923	1	2	0.2534027006477118	0.402789270113119	1	0
20	9	1	0.5	0.5	1	0.4959216317360467	1	2	0.4302373006939888	0.4139460002967097	1	0
20	10	1	0.5	0.5	1	0.5605326032837326	1	2	0.375318699516356	0.5053616166462879	1	0
20	11	1	0.5	0.5	1	0.5151497664275243	1	2	0.4265130003914237	0.5093478929018078	1	0
20	12	1	0.5	0.5	1	0.4402544866032194	1	2	0.5023344000801444	0.5292564662399188	2	0
20	13	1	0.5	0.5	1	0.5693879930523223	1	2	0.4039570996537805	0.4264424752350351	1	0
20	14	1	0.5	0.5	1	0.5649576525762219	1	2	0.6565399998798966	0.4260662071426377	1	0
20	15	1	0.5	0.5	1	0.4138952665063592	1	2	0.674443700350821	0.4557857848648287	2	0
20	16	1	0.5	0.5	1	0.580024991522373	1	2	0.3654431998729706	0.5585900829051491	1	0
20	17	1	0.5	0.5	1	0.5646877593492837	1	2	0.3201717995107174	0.5587371342812179	1	0
20	18	1	0.5	0.5	1	0.4123093950859454	1	2	0.5012698005884886	0.5227340869248598	2	0
20	19	1	0.5	0.5	1	0.5871566395202776	1	2	0.5460707005113363	0.422801714330133	1	0
20	20	1	0.5	0.5	1	0.4391295421929449	1	2	0.9547573002055287	0.5075148247913412	2	0
