blockNum	trialNum	condition	pWin1	pWin2	optimalResponse	preStimulusDelay	responded	response	rt	preFeedbackDelay	outcome	optimal
1	1	2	0.1	0.6	2	0.5850697653475049	0	n/a	n/a	n/a	n/a	n/a
1	2	2	0.1	0.6	2	0.4194345771064059	1	2	0.9798898999997618	0.4306657572768993	1	1
1	3	2	0.1	0.6	2	0.5998560081294173	1	1	1.235378500000024	0.432405017634133	2	0
1	4	2	0.1	0.6	2	0.5093635315473091	1	2	1.271623600000112	0.5012528523739859	1	1
1	5	2	0.1	0.6	2	0.4408058579585674	1	2	0.8043136000001141	0.5468727579596735	2	1
1	6	2	0.1	0.6	2	0.516004386078555	1	2	0.9753584000000046	0.4768028747017655	1	1
1	7	2	0.1	0.6	2	0.4848137117013899	1	1	0.8982117999998991	0.5179213003589266	2	0
1	8	2	0.1	0.6	2	0.4164863225160048	1	2	0.5345405000002756	0.5169302959951734	1	1
1	9	2	0.1	0.6	2	0.4628500526795939	1	1	0.3925182000002678	0.4272426585256093	2	0
1	10	2	0.1	0.6	2	0.557483998042676	1	2	0.3977953999997226	0.4939844338313893	2	1
1	11	2	0.1	0.6	2	0.4651107158890384	1	2	0.2367525999998179	0.4160681591137668	1	1
1	12	2	0.1	0.6	2	0.4530155701340315	1	1	0.3875498000002153	0.5207859261844828	2	0
1	13	2	0.1	0.6	2	0.5453478214474039	1	2	0.291279300000042	0.4977204061223161	1	1
1	14	2	0.1	0.6	2	0.5010646426162243	1	2	0.2347300000001269	0.4128025957430184	2	1
1	15	2	0.1	0.6	2	0.4930321312921008	1	1	0.3038841000002321	0.4066805752092917	2	0
1	16	2	0.1	0.6	2	0.5936701160832778	1	1	0.616618600000038	0.5481689643445482	2	0
1	17	2	0.1	0.6	2	0.4355343467165396	1	1	0.4638396999998804	0.5414887574773951	1	0
1	18	2	0.1	0.6	2	0.4502908602832591	1	2	0.6733788999999888	0.5281220438373028	1	1
1	19	2	0.1	0.6	2	0.4705030178990961	1	2	0.0003985999996984901	0.475304195133511	1	1
1	20	2	0.1	0.6	2	0.4798338408128507	1	1	0.320003099999667	0.5141743925398137	2	0
2	1	2	0.1	0.6	2	0.5641347599610189	1	2	1.894733199999791	0.5109227199172268	2	1
2	2	2	0.1	0.6	2	0.5744141018796316	1	1	0.5616704999997637	0.4896280615667292	2	0
2	3	2	0.1	0.6	2	0.5497674245947256	1	1	0.3413418000000092	0.41176560600469	2	0
2	4	2	0.1	0.6	2	0.5426567886670803	1	2	0.2546697999996468	0.583637922495757	2	1
2	5	2	0.1	0.6	2	0.5783758857709492	1	2	0.2132668999997804	0.5393273284064404	1	1
2	6	2	0.1	0.6	2	0.5791660151863014	1	1	0.6500685000000885	0.5372893119782436	2	0
2	7	2	0.1	0.6	2	0.4439462855038374	1	2	0.2925526999997601	0.540516807446608	2	1
2	8	2	0.1	0.6	2	0.466687022955995	1	1	0.0003983000001426262	0.455181576906908	2	0
2	9	2	0.1	0.6	2	0.4965369838315287	1	2	0.2642056999998204	0.545041807020034	1	1
2	10	2	0.1	0.6	2	0.4242917264744132	1	2	0.8961631999995916	0.4751757827520715	1	1
2	11	2	0.1	0.6	2	0.5084004122020924	1	2	0.2613090999998349	0.5227855734138169	2	1
2	12	2	0.1	0.6	2	0.4928327796504189	1	1	0.2662224999999125	0.5353632563391049	2	0
2	13	2	0.1	0.6	2	0.5425615837191752	1	2	0.3667683000003308	0.5543888345874164	2	1
2	14	2	0.1	0.6	2	0.5409693602979664	1	1	0.0003972999998040905	0.5945634478660494	2	0
2	15	2	0.1	0.6	2	0.5260904639427009	1	2	0.3747752999997829	0.4286911627787368	2	1
2	16	2	0.1	0.6	2	0.4503825789292579	1	1	0.5977872000003117	0.5977439788423538	2	0
2	17	2	0.1	0.6	2	0.5356882423263833	1	1	0.3753751999997803	0.5839374315398531	2	0
2	18	2	0.1	0.6	2	0.4061895602482108	1	2	0.333614800000305	0.5621959916638952	2	1
2	19	2	0.1	0.6	2	0.5836339094243348	1	1	0.3745906999997715	0.4435764096774686	2	0
2	20	2	0.1	0.6	2	0.5782607042057759	1	2	0.3488648999996258	0.5201404297261559	1	1
3	1	1	0.5	0.5	1	0.5627284238798693	1	1	0.57313669999985	0.5353640836502231	2	1
3	2	1	0.5	0.5	1	0.5491940801444989	1	2	0.3511057999999139	0.438593573665373	1	0
3	3	1	0.5	0.5	1	0.5492845700289428	1	2	0.2937941999998657	0.5787052178456911	1	0
3	4	1	0.5	0.5	1	0.4176247329157122	1	2	0.2442685000000893	0.4471316990057242	1	0
3	5	1	0.5	0.5	1	0.5620632519454675	1	1	0.4049823000000288	0.4194660534166831	1	1
3	6	1	0.5	0.5	1	0.4150241362217255	1	2	0.0004074000003129186	0.4478798502917151	2	0
3	7	1	0.5	0.5	1	0.5421519565162866	1	1	0.2366992000002028	0.4046317812781415	2	1
3	8	1	0.5	0.5	1	0.4688113669276714	1	1	0.7881958000002669	0.447977035009878	2	1
3	9	1	0.5	0.5	1	0.4134304513188522	1	2	0.0004045999999107153	0.5650241302539134	1	0
3	10	1	0.5	0.5	1	0.5750899571223077	1	1	0.2363299999997253	0.5526514979040473	2	1
3	11	1	0.5	0.5	1	0.496269652555641	1	2	0.2420959999999468	0.5304320875450512	2	0
3	12	1	0.5	0.5	1	0.4717739747364165	1	1	0.0003958000002057815	0.5360091477358681	1	1
3	13	1	0.5	0.5	1	0.4280645621976412	1	2	0.2872471000000587	0.4348074351242993	1	0
3	14	1	0.5	0.5	1	0.4096812324410855	1	1	0.3214292000002388	0.5850646518173453	1	1
3	15	1	0.5	0.5	1	0.592893660087336	1	2	0.484431300000324	0.4683566356524266	2	0
3	16	1	0.5	0.5	1	0.4908314737816943	1	1	0.2686109999999644	0.5145400802556037	2	1
3	17	1	0.5	0.5	1	0.4937214062860593	1	2	0.04109460000017862	0.429047396041999	2	0
3	18	1	0.5	0.5	1	0.4151843922276933	1	1	0.2475609000002805	0.5071094059195635	1	1
3	19	1	0.5	0.5	1	0.4295298971133148	1	1	0.1944815000001654	0.4166382010256088	2	1
3	20	1	0.5	0.5	1	0.5066619313921558	1	1	0.3601907000002029	0.4234363047573455	2	1
4	1	1	0.5	0.5	1	0.4047903917865651	1	2	1.78198859999975	0.4032286183175311	2	0
4	2	1	0.5	0.5	1	0.4362037123165532	1	1	0.0004048000000693719	0.40945849352025	2	1
4	3	1	0.5	0.5	1	0.4961442073723953	1	2	0.4381647999998677	0.4042981365874682	1	0
4	4	1	0.5	0.5	1	0.546291572863442	1	2	0.2819565999998304	0.4750611639865394	2	0
4	5	1	0.5	0.5	1	0.5380751753584766	1	1	0.2763957000001938	0.5229304359173295	2	1
4	6	1	0.5	0.5	1	0.5421863468975072	1	1	0.2787005000000136	0.4317221644334403	2	1
4	7	1	0.5	0.5	1	0.462480271692866	1	2	0.213288299999931	0.4696517885870025	2	0
4	8	1	0.5	0.5	1	0.4221276574102589	1	2	0.0003994999997303239	0.4434176617456023	1	0
4	9	1	0.5	0.5	1	0.4391674447481733	1	2	0.2120990000003076	0.4238952114210632	2	0
4	10	1	0.5	0.5	1	0.4965111646299785	1	1	0.3875725000002603	0.44062296259077	2	1
4	11	1	0.5	0.5	1	0.5411972613129741	1	2	0.01317220000009911	0.4606207627807359	2	0
4	12	1	0.5	0.5	1	0.4023129518741902	1	2	1.220326800000294	0.4279838639114176	2	0
4	13	1	0.5	0.5	1	0.4237352749298897	1	2	0.1851987000000008	0.4014793153840776	1	0
4	14	1	0.5	0.5	1	0.4604096779921656	1	1	0.1393815999999788	0.4335957540599512	2	1
4	15	1	0.5	0.5	1	0.4504399400668906	1	2	0.3658519999999044	0.5206609014369883	2	0
4	16	1	0.5	0.5	1	0.5786422651174006	1	2	0.0597619999998642	0.4618775832395605	2	0
4	17	1	0.5	0.5	1	0.5479427700845585	1	1	0.2837101000000075	0.5602602297959207	2	1
4	18	1	0.5	0.5	1	0.5588834653262613	1	2	0.000677699999869219	0.4377311485797095	1	0
4	19	1	0.5	0.5	1	0.4790997550160682	1	2	0.3755102999998599	0.4619902357660812	2	0
4	20	1	0.5	0.5	1	0.5726462870375403	1	2	0.7642801000001782	0.5345153044339409	2	0
5	1	2	0.1	0.6	2	0.571008410749031	0	n/a	n/a	n/a	n/a	n/a
5	2	2	0.1	0.6	2	0.5096978626975435	1	2	0.5126026999996611	0.560674945613135	2	1
5	3	2	0.1	0.6	2	0.5551005321398623	1	2	0.4516688000003342	0.4649433790819378	1	1
5	4	2	0.1	0.6	2	0.5265926007061796	1	1	0.2520726999996441	0.4759304610670619	2	0
5	5	2	0.1	0.6	2	0.525453222098797	1	2	0.1904577999998764	0.5217703355461208	2	1
5	6	2	0.1	0.6	2	0.4501094586829339	1	1	0.2899847999997291	0.4062106354335537	1	0
5	7	2	0.1	0.6	2	0.5647194864484228	1	1	0.3148576999997204	0.5657424012704747	2	0
5	8	2	0.1	0.6	2	0.5426723673654401	1	2	0.3038071999999374	0.5598452445183851	1	1
5	9	2	0.1	0.6	2	0.5049693394538215	1	1	0.6610325000001467	0.485301059563913	2	0
5	10	2	0.1	0.6	2	0.516817271409729	1	2	0.4922066000003724	0.4263994634526967	1	1
5	11	2	0.1	0.6	2	0.447129018268169	1	1	0.4132917000001726	0.4602771339722272	2	0
5	12	2	0.1	0.6	2	0.4245792658898463	1	2	0.2533881999997902	0.5544092708838521	2	1
5	13	2	0.1	0.6	2	0.4304078965896231	1	1	0.347429600000396	0.5384781227329907	2	0
5	14	2	0.1	0.6	2	0.5458897788484655	1	2	0.2761517999997523	0.5904298728583803	1	1
5	15	2	0.1	0.6	2	0.5884324339971496	1	2	0.6288773000001129	0.4510416579176733	1	1
5	16	2	0.1	0.6	2	0.4553233509401602	1	2	0.2652732000001379	0.5210059262514722	1	1
5	17	2	0.1	0.6	2	0.5366005759716284	1	2	0.2620469999997113	0.5789247210790955	1	1
5	18	2	0.1	0.6	2	0.5407579213995573	1	2	0.2682982999999695	0.55262439925192	1	1
5	19	2	0.1	0.6	2	0.4353247247318366	1	2	0.2164144000003034	0.4097600467615254	2	1
5	20	2	0.1	0.6	2	0.4214859358637418	1	1	0.0003959999999096908	0.4455872229743696	2	0
6	1	2	0.1	0.6	2	0.517906099085984	1	1	0.4111797999998998	0.4742357194004201	2	0
6	2	2	0.1	0.6	2	0.5152737909636761	1	2	0.583087400000295	0.57444712227839	1	1
6	3	2	0.1	0.6	2	0.5611820875293402	1	1	0.2685169999999744	0.5507063862143344	2	0
6	4	2	0.1	0.6	2	0.5648899432638668	1	2	0.09604460000036852	0.4790786810905694	1	1
6	5	2	0.1	0.6	2	0.5744649661955752	1	1	0.1055632999996305	0.518805163177674	2	0
6	6	2	0.1	0.6	2	0.5184196157155071	1	2	0.1923603999998704	0.47094140428286	2	1
6	7	2	0.1	0.6	2	0.5828701877190419	1	1	0.2173947999999655	0.5081708015322571	2	0
6	8	2	0.1	0.6	2	0.5476015571408519	1	2	0.2486270999997942	0.4384815114333709	1	1
6	9	2	0.1	0.6	2	0.5382980975705407	1	2	0.0003980999999839696	0.461184745059671	1	1
6	10	2	0.1	0.6	2	0.5217818645835232	1	2	0.6085614000003261	0.4342663194124555	2	1
6	11	2	0.1	0.6	2	0.5089654842364801	1	1	0.5796771999998782	0.4841520275906821	2	0
6	12	2	0.1	0.6	2	0.4406407905176493	1	2	0.3075653999999304	0.418957802828771	2	1
6	13	2	0.1	0.6	2	0.5800322547108113	1	1	0.4883899000001293	0.5079027184674607	2	0
6	14	2	0.1	0.6	2	0.5976854568088993	1	2	0.1279559999998128	0.417469435978842	1	1
6	15	2	0.1	0.6	2	0.5473633172747253	1	2	0.9662763999999697	0.5953171824433811	2	1
6	16	2	0.1	0.6	2	0.4889883331688056	1	2	0.2179360000000088	0.5396933176722521	1	1
6	17	2	0.1	0.6	2	0.5771026977300509	1	1	0.2841600000001563	0.4391963964809888	2	0
6	18	2	0.1	0.6	2	0.5253148624698878	1	2	0.4481293999997433	0.4709255487210491	1	1
6	19	2	0.1	0.6	2	0.4222538239216087	1	1	0.2321525000002111	0.4221374506022317	2	0
6	20	2	0.1	0.6	2	0.4671486199183166	1	2	0.2279338000003008	0.542716493617958	1	1
7	1	1	0.5	0.5	1	0.4957119148509405	1	2	1.19231340000033	0.5284596654153763	2	0
7	2	1	0.5	0.5	1	0.5113518770889914	1	2	0.5437354000000596	0.5513592694494193	1	0
7	3	1	0.5	0.5	1	0.5418091722714303	1	2	0.2702651999998125	0.4823453086938551	2	0
7	4	1	0.5	0.5	1	0.4323099951197908	1	1	0.5511285000002317	0.4885605259950934	2	1
7	5	1	0.5	0.5	1	0.4458373274781537	1	2	0.3574837000001025	0.4608566527626218	2	0
7	6	1	0.5	0.5	1	0.5469499135191667	1	1	0.4362543000002006	0.5732322720971075	1	1
7	7	1	0.5	0.5	1	0.5970497657030149	1	2	0.3810092999997323	0.498831537955483	1	0
7	8	1	0.5	0.5	1	0.5082904381700747	1	2	0.2822369000000435	0.4751796129649682	2	0
7	9	1	0.5	0.5	1	0.5246534098023836	1	1	0.2750891999999112	0.4770551312876252	1	1
7	10	1	0.5	0.5	1	0.4850130444216602	1	2	0.2781417000001056	0.5056261610165876	1	0
7	11	1	0.5	0.5	1	0.4786620514796416	1	1	0.2565442999998595	0.4476902577073124	2	1
7	12	1	0.5	0.5	1	0.501845870848479	1	2	0.3029693999997107	0.5336695723923692	1	0
7	13	1	0.5	0.5	1	0.482669509272785	1	1	0.3500462000001789	0.5322269188609853	1	1
7	14	1	0.5	0.5	1	0.563428016757652	1	2	0.58185659999981	0.4477371103368291	2	0
7	15	1	0.5	0.5	1	0.484407357911618	1	2	0.4894702000001416	0.4222904780010241	1	0
7	16	1	0.5	0.5	1	0.5907175358953811	1	1	0.2165071999997963	0.5419418609763651	1	1
7	17	1	0.5	0.5	1	0.4337223810194082	1	2	0.02355420000003505	0.446563085067613	2	0
7	18	1	0.5	0.5	1	0.4647130936669492	1	1	0.0004034000003230176	0.4176517173999956	2	1
7	19	1	0.5	0.5	1	0.4533964662960982	1	1	0.4803561000003356	0.5566516979860253	2	1
7	20	1	0.5	0.5	1	0.433371571375009	1	1	0.5501560000002428	0.4665376354187307	1	1
8	1	1	0.5	0.5	1	0.4692895848050453	1	2	1.338968900000054	0.407620552870246	1	0
8	2	1	0.5	0.5	1	0.4921469478553123	1	1	1.323453699999845	0.5191530119532135	1	1
8	3	1	0.5	0.5	1	0.4933968666804333	1	1	0.4437499000000571	0.4532848931219536	1	1
8	4	1	0.5	0.5	1	0.5277582251267604	1	2	0.5166196000000127	0.5485174964727946	2	0
8	5	1	0.5	0.5	1	0.5684401085638408	1	1	0.2772476000000097	0.5785489511970155	1	1
8	6	1	0.5	0.5	1	0.4581116087096156	1	2	0.3795989000000191	0.5941118246475463	2	0
8	7	1	0.5	0.5	1	0.5138090814827855	1	2	0.2038129999996272	0.5183738598582051	2	0
8	8	1	0.5	0.5	1	0.5762908814004118	1	1	0.258853100000124	0.5946560326882043	2	1
8	9	1	0.5	0.5	1	0.457602433708983	1	2	0.2838233000002219	0.5940688567054508	2	0
8	10	1	0.5	0.5	1	0.4199810640452799	1	2	0.2149810000000798	0.5725307040128432	1	0
8	11	1	0.5	0.5	1	0.4178350215925324	1	2	0.2585062999996808	0.540892093696131	2	0
8	12	1	0.5	0.5	1	0.5289257945410644	1	1	0.259641499999816	0.5518205739500484	1	1
8	13	1	0.5	0.5	1	0.5999322471543844	1	1	0.2083613999998306	0.4864154310904079	2	1
8	14	1	0.5	0.5	1	0.5500457762558366	1	2	0.4754091999998309	0.5012178530018586	2	0
8	15	1	0.5	0.5	1	0.5773852087456898	1	1	0.3794772000001103	0.4400676440128619	1	1
8	16	1	0.5	0.5	1	0.4668621416457965	1	2	0.0004053000002386398	0.553850223111889	1	0
8	17	1	0.5	0.5	1	0.4837619098059795	1	2	0.2958597000001646	0.5065359903692243	2	0
8	18	1	0.5	0.5	1	0.4405639557256538	0	n/a	n/a	n/a	n/a	n/a
8	19	1	0.5	0.5	1	0.5829626844180404	1	1	0.3874405000001389	0.547912161246761	2	1
8	20	1	0.5	0.5	1	0.554490920621752	1	2	0.2388651999999638	0.4058415894768991	2	0
9	1	2	0.1	0.6	2	0.5383273713746838	1	2	0.7221447000001717	0.4264415754532509	1	1
9	2	2	0.1	0.6	2	0.5752684141320433	1	2	0.2633171000002221	0.5970020601501502	1	1
9	3	2	0.1	0.6	2	0.5868369969840455	1	2	0.2525105999998232	0.5145825983936831	2	1
9	4	2	0.1	0.6	2	0.505282475021095	1	2	0.2256745999998202	0.5224690877949706	1	1
9	5	2	0.1	0.6	2	0.4455581773173427	1	1	0.2287587000000713	0.4020368408710933	2	0
9	6	2	0.1	0.6	2	0.5012844241408897	1	1	0.2542625999999473	0.4466313327118582	2	0
9	7	2	0.1	0.6	2	0.579500444983114	1	2	0.1252712000000429	0.5942691841019445	1	1
9	8	2	0.1	0.6	2	0.4272960881835145	1	2	0.3085543000001962	0.5269317789507966	1	1
9	9	2	0.1	0.6	2	0.5977319042237859	1	2	0.2914089999999305	0.4192027217175275	1	1
9	10	2	0.1	0.6	2	0.4643199593899383	1	1	0.2520424999997886	0.5563106713511646	2	0
9	11	2	0.1	0.6	2	0.5897252285374769	1	1	0.2324057999999241	0.5262460582177168	2	0
9	12	2	0.1	0.6	2	0.4516592260902014	1	1	0.2638786000002256	0.5521983050319341	2	0
9	13	2	0.1	0.6	2	0.4891832098532571	1	2	0.2729666999998699	0.4190270343150418	2	1
9	14	2	0.1	0.6	2	0.4340495370334088	1	2	0.354965699999866	0.4130764341584718	1	1
9	15	2	0.1	0.6	2	0.4560094922137981	1	2	0.0004285999998501211	0.4410826254971759	2	1
9	16	2	0.1	0.6	2	0.5848850373457428	1	2	0.5859601000001931	0.417528136616655	1	1
9	17	2	0.1	0.6	2	0.4239915328932277	1	2	0.3554922999996961	0.4773140090771462	1	1
9	18	2	0.1	0.6	2	0.4603771982336677	1	2	0.00148429999990185	0.5407147787223948	1	1
9	19	2	0.1	0.6	2	0.4839803139811762	1	2	0.4311032999999043	0.4611417404327172	2	1
9	20	2	0.1	0.6	2	0.5599357648781167	1	2	0.2947777000003953	0.5220288554490636	1	1
10	1	2	0.1	0.6	2	0.4435007534745184	1	1	1.79187120000006	0.5967904413536318	2	0
10	2	2	0.1	0.6	2	0.5624725520570574	1	1	0.3588737999998557	0.543484957894721	2	0
10	3	2	0.1	0.6	2	0.4984182721874438	1	1	0.0004152000001340639	0.5467633471831319	2	0
10	4	2	0.1	0.6	2	0.5329939897629071	1	1	0.4956222000000707	0.5012423756634303	2	0
10	5	2	0.1	0.6	2	0.5250235898421973	1	2	0.3121946999999636	0.5270901444851301	1	1
10	6	2	0.1	0.6	2	0.5976349897827928	1	2	0.0004019999996671686	0.4694324817724844	2	1
10	7	2	0.1	0.6	2	0.5325503395678839	1	1	0.1531612000003406	0.4960880640163344	2	0
10	8	2	0.1	0.6	2	0.5753346386802819	1	2	0.2345748999996431	0.5030664127546384	1	1
10	9	2	0.1	0.6	2	0.599282145117857	1	2	0.05664909999995871	0.5438801073820242	1	1
10	10	2	0.1	0.6	2	0.5496959051687489	1	2	0.1986508999998478	0.5543439195712386	2	1
10	11	2	0.1	0.6	2	0.5140947371283444	1	2	0.2327021999999488	0.4059434745349041	1	1
10	12	2	0.1	0.6	2	0.507722035592668	1	2	1.10678259999986	0.423088009857852	1	1
10	13	2	0.1	0.6	2	0.4059498745589484	1	2	0.01992059999975027	0.4769217110617835	1	1
10	14	2	0.1	0.6	2	0.5829366824954789	1	2	0.2424810000002253	0.5661379008396198	2	1
10	15	2	0.1	0.6	2	0.4434854057735743	1	2	0.2065789000002951	0.4365998777352817	1	1
10	16	2	0.1	0.6	2	0.5466908991298618	1	2	0.04535420000001977	0.4439537103524321	2	1
10	17	2	0.1	0.6	2	0.4985223548420367	1	2	0.2074077000002035	0.5892713276333766	2	1
10	18	2	0.1	0.6	2	0.5172355471819754	1	1	0.3571533999997882	0.4624700527640604	2	0
10	19	2	0.1	0.6	2	0.4968016328202798	1	2	0.2639924000000065	0.4737344451053487	1	1
10	20	2	0.1	0.6	2	0.4103764852386654	1	2	0.2457712999998876	0.5175860964597346	1	1
11	1	1	0.5	0.5	1	0.5542659538959259	1	1	0.4123779000001377	0.5849778400576122	1	1
11	2	1	0.5	0.5	1	0.4874817929435304	1	1	0.2838646999998673	0.4173528829867898	2	1
11	3	1	0.5	0.5	1	0.4477009790555995	1	2	0.2330589999996846	0.4308573175957975	1	0
11	4	1	0.5	0.5	1	0.4101336385773834	1	2	0.3043907999999647	0.4803216386975521	1	0
11	5	1	0.5	0.5	1	0.5332714839572905	1	1	0.2633974000000308	0.5799391805092665	1	1
11	6	1	0.5	0.5	1	0.4149886213457006	1	1	0.3806198999996013	0.5195455473079232	2	1
11	7	1	0.5	0.5	1	0.5953621939908198	1	2	1.351553099999819	0.4795323204346044	1	0
11	8	1	0.5	0.5	1	0.4634198352746109	1	2	0.469001500000104	0.4991541913450866	1	0
11	9	1	0.5	0.5	1	0.5097278393789924	1	2	0.3558109000000513	0.4808965483663632	2	0
11	10	1	0.5	0.5	1	0.4182702028847748	1	1	0.001465099999677477	0.5381244671299092	1	1
11	11	1	0.5	0.5	1	0.5734725266558094	1	2	0.2859702999999172	0.4863021009292074	2	0
11	12	1	0.5	0.5	1	0.4782586789610644	1	2	0.2949997000000621	0.5087225455192561	1	0
11	13	1	0.5	0.5	1	0.5280875582506207	1	1	0.5358686999998099	0.5590604960477813	1	1
11	14	1	0.5	0.5	1	0.446039011737503	1	2	0.0004039999998894928	0.5700931100454751	2	0
11	15	1	0.5	0.5	1	0.4635027198061669	1	2	0.4739721999999347	0.5774998713963819	1	0
11	16	1	0.5	0.5	1	0.5632936394875336	1	1	0.4192857999996704	0.5136119765702831	2	1
11	17	1	0.5	0.5	1	0.5772926952092687	1	2	0.3512699000002613	0.4842214545102447	1	0
11	18	1	0.5	0.5	1	0.4354759175171324	1	1	0.5399608000002445	0.5809221585873181	2	1
11	19	1	0.5	0.5	1	0.5427816097965437	1	2	0.4330743999998958	0.5564674117730153	2	0
11	20	1	0.5	0.5	1	0.4140309329998376	1	1	0.6126029000001836	0.4452981510481805	2	1
12	1	1	0.5	0.5	1	0.5621084394930811	1	2	0.4032443000000967	0.582520584240386	1	0
12	2	1	0.5	0.5	1	0.4660249819921639	1	1	0.5166944000002331	0.4318916914315601	2	1
12	3	1	0.5	0.5	1	0.4465113528555683	1	2	0.3175624000000425	0.5568202288097366	2	0
12	4	1	0.5	0.5	1	0.4800508479828228	1	1	0.0004045000000587606	0.5999869545339789	2	1
12	5	1	0.5	0.5	1	0.5396658290357301	1	2	0.01672610000014174	0.5615059701562093	2	0
12	6	1	0.5	0.5	1	0.527415220235798	1	2	0.196903999999904	0.5809788870493146	1	0
12	7	1	0.5	0.5	1	0.4583131920374233	1	2	0.3825449999999364	0.5551152381509153	1	0
12	8	1	0.5	0.5	1	0.4248817031807447	1	1	0.3274130999998306	0.5775774038568844	1	1
12	9	1	0.5	0.5	1	0.4690245386039767	1	2	0.5042694999997366	0.5255282690808585	2	0
12	10	1	0.5	0.5	1	0.5015542490362013	1	1	0.2867749000001822	0.4836781694295613	1	1
12	11	1	0.5	0.5	1	0.4121902409610799	1	1	0.4227314999998271	0.5686000093518792	1	1
12	12	1	0.5	0.5	1	0.5692280587264986	1	1	0.3925597999996171	0.4041358099925514	2	1
12	13	1	0.5	0.5	1	0.5619150652652315	1	2	0.0159761999998409	0.478052159022796	2	0
12	14	1	0.5	0.5	1	0.4558447363289217	1	2	0.8249665999996978	0.5573479776567949	1	0
12	15	1	0.5	0.5	1	0.4508481095719211	1	2	0.6175472999998419	0.5734109766687472	1	0
12	16	1	0.5	0.5	1	0.5234672645462732	1	2	0.7458447999997588	0.5052657304203577	2	0
12	17	1	0.5	0.5	1	0.4773489642747542	1	2	0.7383221000000049	0.4393132524819817	2	0
12	18	1	0.5	0.5	1	0.4509067293119022	1	2	0.3251341000000139	0.5756731905759623	2	0
12	19	1	0.5	0.5	1	0.503375281604455	1	2	0.3002031999999417	0.4293400528550179	2	0
12	20	1	0.5	0.5	1	0.5088054399319604	0	n/a	n/a	n/a	n/a	n/a
13	1	2	0.1	0.6	2	0.4617721735685806	0	n/a	n/a	n/a	n/a	n/a
13	2	2	0.1	0.6	2	0.5459828462633746	1	1	0.5194688999999926	0.4831766011116918	2	0
13	3	2	0.1	0.6	2	0.4100356001503718	1	2	0.2215750999998818	0.4004000123782485	1	1
13	4	2	0.1	0.6	2	0.4214426402475293	1	1	0.2501597000000402	0.5159192734596749	2	0
13	5	2	0.1	0.6	2	0.4873762363719331	1	2	0.618602699999883	0.4178418121587931	2	1
13	6	2	0.1	0.6	2	0.462107200788258	1	2	0.05877120000013747	0.5168127440936464	1	1
13	7	2	0.1	0.6	2	0.424518133453366	1	2	0.1489793000000645	0.4650736467257783	1	1
13	8	2	0.1	0.6	2	0.5612020957462202	1	2	0.4158744000001207	0.4753683877206971	2	1
13	9	2	0.1	0.6	2	0.463436690184557	1	2	0.2518313999999009	0.5143424817794389	1	1
13	10	2	0.1	0.6	2	0.5658869257841108	1	1	0.2474440000000868	0.4683715848379482	2	0
13	11	2	0.1	0.6	2	0.5044417860628106	1	2	0.2372387000000344	0.4960648387089437	2	1
13	12	2	0.1	0.6	2	0.4919527149805458	1	1	0.2743178999999145	0.4068533259145619	2	0
13	13	2	0.1	0.6	2	0.5534666375606583	1	2	0.2505784999998468	0.5504394325738633	2	1
13	14	2	0.1	0.6	2	0.5122476444618179	1	2	0.2224900000001071	0.4481232865782524	2	1
13	15	2	0.1	0.6	2	0.5321135323985717	1	1	0.2645956999999726	0.4788530017005469	1	0
13	16	2	0.1	0.6	2	0.5038731161677981	1	1	1.14037320000034	0.5887120251577254	1	0
13	17	2	0.1	0.6	2	0.4516099260027656	1	1	0.5225336000003153	0.5447612156222015	2	0
13	18	2	0.1	0.6	2	0.4745216644030444	1	2	1.332788799999889	0.4760828160838837	2	1
13	19	2	0.1	0.6	2	0.5052213437207681	1	1	1.146643900000072	0.5867920770454578	1	0
13	20	2	0.1	0.6	2	0.579182113193126	1	1	0.1896505999998226	0.5617919316313209	2	0
14	1	1	0.5	0.5	1	0.4366711409836629	1	2	0.5909820000001673	0.5319059471205997	2	0
14	2	1	0.5	0.5	1	0.4394909710886917	1	1	0.3461932000000161	0.5732867899977384	2	1
14	3	1	0.5	0.5	1	0.5046532131463977	1	2	0.1278010000000904	0.4903772731575866	2	0
14	4	1	0.5	0.5	1	0.4095267052713962	1	2	0.2701066999998147	0.4322445668996898	1	0
14	5	1	0.5	0.5	1	0.5582163954348059	1	1	0.4881706000001031	0.5415120432113587	1	1
14	6	1	0.5	0.5	1	0.51810339684636	1	2	0.7473985999999968	0.5587443539975741	2	0
14	7	1	0.5	0.5	1	0.5334618945465223	1	1	0.3512755000001562	0.4750228546605086	1	1
14	8	1	0.5	0.5	1	0.4862335211322565	1	2	0.2683658000000833	0.5546444757099465	1	0
14	9	1	0.5	0.5	1	0.5153830709849256	1	2	0.2274016999999731	0.5058055776377501	2	0
14	10	1	0.5	0.5	1	0.4261101985575915	1	1	0.3509958999998162	0.4584354591859707	2	1
14	11	1	0.5	0.5	1	0.4252009340489287	1	2	0.0004011000000900822	0.5941901926988541	2	0
14	12	1	0.5	0.5	1	0.4776827283783931	1	1	0.6559879999999794	0.485893098556288	1	1
14	13	1	0.5	0.5	1	0.4276492333588783	1	2	0.2352493000003051	0.4676075865318917	1	0
14	14	1	0.5	0.5	1	0.4256725445802007	1	2	0.2200671000000511	0.5123156087468486	2	0
14	15	1	0.5	0.5	1	0.424923629817461	1	2	0.3668769999999313	0.4266488999121544	1	0
14	16	1	0.5	0.5	1	0.4832585554311611	1	1	0.2891377999999349	0.4041501249452188	2	1
14	17	1	0.5	0.5	1	0.4350743553523112	1	2	0.09548150000000533	0.525138923330038	2	0
14	18	1	0.5	0.5	1	0.5662601109676594	1	2	0.2392561999999998	0.5144924024192448	1	0
14	19	1	0.5	0.5	1	0.5997581825913678	1	2	0.2763190999999097	0.5911808312649262	2	0
14	20	1	0.5	0.5	1	0.4929588738027418	1	1	0.3411868000002869	0.5511088352395762	1	1
15	1	2	0.6	0.1	1	0.4741228669200472	1	1	0.3645182999998724	0.5851640312417619	1	1
15	2	2	0.6	0.1	1	0.4808238182669495	1	2	0.6027377999998862	0.5910046448238149	2	0
15	3	2	0.6	0.1	1	0.4936723096308624	1	1	0.3341392000002088	0.4240310747270121	1	1
15	4	2	0.6	0.1	1	0.5501924428477794	1	1	0.5528329000003396	0.5255996682348391	1	1
15	5	2	0.6	0.1	1	0.427189773037893	1	1	0.4198077000000922	0.5140324410489688	1	1
15	6	2	0.6	0.1	1	0.4408565644640878	1	1	0.2537833999999748	0.548480668533632	1	1
15	7	2	0.6	0.1	1	0.5506879679035902	1	1	0.0004487999999582826	0.486218443583992	1	1
15	8	2	0.6	0.1	1	0.5814588791867378	1	1	0.4807135000000926	0.5018089207639742	2	1
15	9	2	0.6	0.1	1	0.5313519443468362	1	1	0.2700783999998748	0.485149854226394	1	1
15	10	2	0.6	0.1	1	0.5384277559001605	1	1	0.366692200000216	0.5257427853238565	1	1
15	11	2	0.6	0.1	1	0.506584075382182	1	1	0.008595900000273105	0.4181558386810691	2	1
15	12	2	0.6	0.1	1	0.4644689859416703	1	1	0.3865485999999692	0.4049871153556956	2	1
15	13	2	0.6	0.1	1	0.4708534567166426	1	1	0.1892930999997589	0.5623664564846806	2	1
15	14	2	0.6	0.1	1	0.4724099500577131	1	2	0.0003987999998571468	0.4159559610547257	2	0
15	15	2	0.6	0.1	1	0.5415824378197404	1	2	0.2934221999998954	0.4154253755603396	2	0
15	16	2	0.6	0.1	1	0.423799485992517	1	1	0.226302399999895	0.5203882329840127	1	1
15	17	2	0.6	0.1	1	0.4207762497312392	1	1	0.3034951999998157	0.5856335195105403	2	1
15	18	2	0.6	0.1	1	0.4428489853028007	1	2	0.2398285999997825	0.5187875282119978	2	0
15	19	2	0.6	0.1	1	0.4466803883480067	1	1	0.2226677000003292	0.4876449314238477	2	1
15	20	2	0.6	0.1	1	0.4515605705836001	1	1	0.2325869000001148	0.4012315846849052	1	1
16	1	1	0.5	0.5	1	0.5790742021031381	1	1	0.7488488000003599	0.4775812454240265	2	1
16	2	1	0.5	0.5	1	0.5474063503766139	1	2	0.2723848000000544	0.4237041261209213	1	0
16	3	1	0.5	0.5	1	0.4070201282109984	1	2	0.288610399999925	0.4915899853157733	1	0
16	4	1	0.5	0.5	1	0.5775559438634368	1	2	0.2417602000000443	0.5296630379774511	2	0
16	5	1	0.5	0.5	1	0.5516587610289992	1	1	0.2903399000001627	0.5919579850792047	1	1
16	6	1	0.5	0.5	1	0.4799430994573098	1	1	0.4539079000001038	0.5762698518080174	2	1
16	7	1	0.5	0.5	1	0.4334097278896859	1	2	0.2096215999999913	0.4944316601592775	1	0
16	8	1	0.5	0.5	1	0.5614005870486189	1	2	0.2899139999999534	0.4149328541825807	2	0
16	9	1	0.5	0.5	1	0.402994606991771	1	1	0.468350399999963	0.5499391830419996	2	1
16	10	1	0.5	0.5	1	0.5226516389873345	1	2	0.2334126999999171	0.4869062809023603	1	0
16	11	1	0.5	0.5	1	0.454544303504356	1	2	0.09080760000006194	0.4249425705559075	2	0
16	12	1	0.5	0.5	1	0.4968129392119139	1	2	0.1124426999999741	0.5572277052870489	1	0
16	13	1	0.5	0.5	1	0.4810475109148736	1	2	0.7361077000000478	0.5721172787128626	2	0
16	14	1	0.5	0.5	1	0.4838819311001925	1	2	1.333852599999773	0.523395193813376	1	0
16	15	1	0.5	0.5	1	0.4091739697554742	1	2	1.041000200000326	0.4040199279996571	1	0
16	16	1	0.5	0.5	1	0.4087064373838739	1	2	1.007169700000304	0.4984509878380063	2	0
16	17	1	0.5	0.5	1	0.4157353435624074	1	1	0.08946560000003956	0.436435287232065	1	1
16	18	1	0.5	0.5	1	0.4393248514684566	1	2	0.7713085999998839	0.4065498944472467	2	0
16	19	1	0.5	0.5	1	0.4604505124889827	1	2	0.98702110000022	0.5455254427037669	2	0
16	20	1	0.5	0.5	1	0.5062912027160041	1	2	0.3332695999997668	0.4807991505575403	2	0
17	1	2	0.6	0.1	1	0.5250433659100386	0	n/a	n/a	n/a	n/a	n/a
17	2	2	0.6	0.1	1	0.4495171059421486	1	2	0.4441923000003953	0.5167271885622104	2	0
17	3	2	0.6	0.1	1	0.4475160613941554	1	1	0.3757527999996455	0.5919168084035267	2	1
17	4	2	0.6	0.1	1	0.5777701543108642	1	2	0.538432499999999	0.4398379617016671	1	0
17	5	2	0.6	0.1	1	0.4490895600359174	1	2	0.3552029000002221	0.4153645777142092	2	0
17	6	2	0.6	0.1	1	0.4949074941994686	1	2	0.6898726999997962	0.4178042346197617	1	0
17	7	2	0.6	0.1	1	0.4722128216825199	1	1	0.9913169999999809	0.5622520493192327	1	1
17	8	2	0.6	0.1	1	0.4994306471029893	1	1	0.2785969999999907	0.4225365224275779	1	1
17	9	2	0.6	0.1	1	0.492338535702558	1	1	0.1829247000000578	0.4853036145883091	1	1
17	10	2	0.6	0.1	1	0.4073217351769543	1	1	0.0003998000001956825	0.5707694947873014	2	1
17	11	2	0.6	0.1	1	0.4343409711138972	1	2	0.171632800000225	0.5410376004589049	2	0
17	12	2	0.6	0.1	1	0.5152228107310703	1	1	0.1455018999999993	0.5886949365794107	1	1
17	13	2	0.6	0.1	1	0.4427024034538078	1	1	0.0003962999999203021	0.5262189893862762	1	1
17	14	2	0.6	0.1	1	0.5802913307791142	1	1	0.5040679999997337	0.4105495655802474	1	1
17	15	2	0.6	0.1	1	0.4033154716527215	1	1	0.3817708999999923	0.4444315097572649	1	1
17	16	2	0.6	0.1	1	0.5437431357787159	1	1	0.0003959000000577362	0.5529392994965918	1	1
17	17	2	0.6	0.1	1	0.5543567613887357	1	1	0.6056938000001537	0.46008075059652	1	1
17	18	2	0.6	0.1	1	0.4598561777183655	1	1	0.4026708000001236	0.4314951643509774	2	1
17	19	2	0.6	0.1	1	0.4848986411216646	1	2	0.0004049999997732812	0.4650779134836108	2	0
17	20	2	0.6	0.1	1	0.413137725534565	1	2	0.0419621000000916	0.4589872576984768	2	0
18	1	1	0.5	0.5	1	0.5442626635038322	1	2	0.6155890999998519	0.4415156245022661	1	0
18	2	1	0.5	0.5	1	0.5797769319964159	1	2	0.3217680000002474	0.4771396127599493	2	0
18	3	1	0.5	0.5	1	0.5839535079840155	1	1	0.2977755000001707	0.4230908874377384	1	1
18	4	1	0.5	0.5	1	0.5233549165639976	1	2	0.4082807999998295	0.5926899243887408	2	0
18	5	1	0.5	0.5	1	0.5888930224704948	1	1	0.4878367999999682	0.423827746761228	1	1
18	6	1	0.5	0.5	1	0.5047813355079191	1	2	0.3620814000000792	0.4023673715109954	2	0
18	7	1	0.5	0.5	1	0.4968126780050081	1	2	0.2689259000003403	0.5951505113784052	1	0
18	8	1	0.5	0.5	1	0.4143956640760206	1	2	0.3368957999996383	0.5859096450715674	2	0
18	9	1	0.5	0.5	1	0.5395725711646489	1	2	0.03246989999979633	0.5861466831488595	2	0
18	10	1	0.5	0.5	1	0.4255902208108753	1	1	0.2671985000001769	0.4108459171363021	1	1
18	11	1	0.5	0.5	1	0.4297686129115429	1	1	0.4535539999997127	0.5104160903549535	2	1
18	12	1	0.5	0.5	1	0.4505586748801486	1	1	0.4200558000002275	0.4629927842863149	1	1
18	13	1	0.5	0.5	1	0.4926235780595354	1	1	0.4492510000000038	0.5224675604600552	2	1
18	14	1	0.5	0.5	1	0.400823677265348	1	1	0.555766400000266	0.406369604029075	2	1
18	15	1	0.5	0.5	1	0.528903810263429	1	2	0.2442465000003722	0.4087837346938312	2	0
18	16	1	0.5	0.5	1	0.4835559776044489	1	2	0.4206758000000264	0.4171536397040764	1	0
18	17	1	0.5	0.5	1	0.5588726843288061	1	2	0.2939437999998518	0.5223573957007026	2	0
18	18	1	0.5	0.5	1	0.5826176835756397	1	1	0.356280500000139	0.5919538725860181	1	1
18	19	1	0.5	0.5	1	0.5615685192520639	1	2	0.2831036000002314	0.4360203295035863	2	0
18	20	1	0.5	0.5	1	0.5556858158957891	1	1	0.3552737999998499	0.5951474871876088	1	1
19	1	2	0.6	0.1	1	0.4786622283654505	1	1	0.7092090999999527	0.5441676536873037	1	1
19	2	2	0.6	0.1	1	0.5291077606543815	1	1	0.25055169999996	0.4495933153457458	2	1
19	3	2	0.6	0.1	1	0.495897301885591	1	2	0.2774609000002783	0.4066426411407109	2	0
19	4	2	0.6	0.1	1	0.5227097447092497	1	2	0.3926277000000482	0.5130098876628864	2	0
19	5	2	0.6	0.1	1	0.5165261943312183	1	2	0.275643399999808	0.539051507062238	2	0
19	6	2	0.6	0.1	1	0.5128549348072113	1	1	0.2617972999996709	0.4099346201123025	1	1
19	7	2	0.6	0.1	1	0.5151772874415604	1	1	0.2894092999999884	0.4475167283438949	1	1
19	8	2	0.6	0.1	1	0.5495025094749237	1	1	0.08310990000018137	0.5771881088049847	2	1
19	9	2	0.6	0.1	1	0.5513623473357881	1	1	0.8311856000000262	0.49763336750389	1	1
19	10	2	0.6	0.1	1	0.4842938165026113	1	1	0.3579823000000033	0.4596507469868872	1	1
19	11	2	0.6	0.1	1	0.5386801720934369	1	1	0.3276284000003216	0.4012383571885239	2	1
19	12	2	0.6	0.1	1	0.5147938401829618	1	2	0.5504643999997825	0.4512323415566281	2	0
19	13	2	0.6	0.1	1	0.4951292898118677	1	2	0.2226116000001639	0.5727298873778618	2	0
19	14	2	0.6	0.1	1	0.5020527435680517	1	2	0.0003997999997409352	0.4449427052966614	2	0
19	15	2	0.6	0.1	1	0.4810282331290595	1	1	0.1404056000001219	0.5270158854807246	2	1
19	16	2	0.6	0.1	1	0.5596384475289479	1	2	0.4464740000003076	0.5156908876468124	2	0
19	17	2	0.6	0.1	1	0.4964508365403566	1	1	0.6728670000002239	0.4853820407334464	2	1
19	18	2	0.6	0.1	1	0.5811742795376139	1	2	0.564412899999752	0.5413235521320223	1	0
19	19	2	0.6	0.1	1	0.442997005135475	1	2	0.0003977999999733584	0.5898049032879693	2	0
19	20	2	0.6	0.1	1	0.4637446533597305	1	1	1.033017700000073	0.4159637182898235	2	1
20	1	1	0.5	0.5	1	0.5420848856897252	1	2	0.6930845000001682	0.5003634947326533	2	0
20	2	1	0.5	0.5	1	0.4537524282447614	1	2	0.6151893999999629	0.5210043298941087	2	0
20	3	1	0.5	0.5	1	0.5467755889553508	1	1	0.2866907000002357	0.4046221876673792	2	1
20	4	1	0.5	0.5	1	0.5502341628843277	1	1	0.273110799999813	0.5590253098769873	2	1
20	5	1	0.5	0.5	1	0.4937885643862619	1	1	0.4671358000000509	0.4899782779530044	1	1
20	6	1	0.5	0.5	1	0.4993458739477519	1	2	0.3297139000001152	0.4524061744790828	1	0
20	7	1	0.5	0.5	1	0.5153186001783578	1	2	0.2626040000000103	0.5925256135006698	2	0
20	8	1	0.5	0.5	1	0.4325802186508657	1	2	0.982521700000234	0.4200569675940493	1	0
20	9	1	0.5	0.5	1	0.4845721462275481	1	1	0.3286213999999745	0.5440618369366351	1	1
20	10	1	0.5	0.5	1	0.5221260527225775	1	2	0.3717764000002717	0.4180134460499672	2	0
20	11	1	0.5	0.5	1	0.5755781317630395	1	2	0.211449200000061	0.550645842238014	2	0
20	12	1	0.5	0.5	1	0.5743490786401012	1	2	0.2860388999997667	0.5403215512962292	1	0
20	13	1	0.5	0.5	1	0.5194665659304867	1	2	0.2642224000001079	0.5191625554797379	1	0
20	14	1	0.5	0.5	1	0.4349793711064351	1	2	0.3443566999999348	0.4137486191246199	1	0
20	15	1	0.5	0.5	1	0.5216460985179178	1	2	0.3423217000004115	0.463595389050258	2	0
20	16	1	0.5	0.5	1	0.5537239992222927	1	1	0.344196600000032	0.5371248630868164	2	1
20	17	1	0.5	0.5	1	0.4321352764956233	1	2	0.4317928999998912	0.4597158490794734	2	0
20	18	1	0.5	0.5	1	0.41757144383904	1	2	0.7162908999998763	0.5944508483496774	1	0
20	19	1	0.5	0.5	1	0.486316473595406	1	2	0.915907299999617	0.4068715620265974	1	0
20	20	1	0.5	0.5	1	0.4150869246889017	1	2	0.325411200000417	0.4260080898594533	2	0
