blockNum	trialNum	condition	pWin1	pWin2	optimalResponse	preStimulusDelay	responded	response	rt	preFeedbackDelay	outcome	optimal
1	1	2	0.1	0.6	2	0.4570222245484531	1	2	1.161869700066745	0.599306907399675	1	1
1	2	2	0.1	0.6	2	0.4156299335595911	1	1	0.720539299887605	0.4521033971697739	2	0
1	3	2	0.1	0.6	2	0.5458810033124005	0	n/a	n/a	n/a	n/a	n/a
1	4	2	0.1	0.6	2	0.4424498827694092	1	1	0.4728765001054853	0.5524280537422499	2	0
1	5	2	0.1	0.6	2	0.4885652662268325	1	2	0.4526679000118747	0.474075009439651	2	1
1	6	2	0.1	0.6	2	0.454394906276246	1	2	0.5694086999865249	0.4154421800861114	1	1
1	7	2	0.1	0.6	2	0.5060802203064686	1	1	0.9155167000135407	0.5937294121721121	2	0
1	8	2	0.1	0.6	2	0.5779240562887692	1	1	0.8650633000070229	0.4611775675835501	1	0
1	9	2	0.1	0.6	2	0.5621055832945798	1	2	0.5684728000778705	0.4811927252510809	2	1
1	10	2	0.1	0.6	2	0.5655219441200374	1	1	1.192417999962345	0.5537929093767004	2	0
1	11	2	0.1	0.6	2	0.5928527229603063	1	1	0.3002665999811143	0.4195545007941529	2	0
1	12	2	0.1	0.6	2	0.4549304033655872	1	2	0.278826899942942	0.5118225237032341	1	1
1	13	2	0.1	0.6	2	0.5642837020051245	1	2	0.5172582999803126	0.5021749267870503	1	1
1	14	2	0.1	0.6	2	0.476305537921682	1	1	0.8155524999601766	0.5935151830055877	2	0
1	15	2	0.1	0.6	2	0.5779980752298619	1	2	0.5985801999922842	0.4924221219312466	1	1
1	16	2	0.1	0.6	2	0.4234950152551892	1	2	0.3971528999973089	0.5288628560654206	2	1
1	17	2	0.1	0.6	2	0.4992103323727125	1	2	0.3153427001088858	0.539562363814811	1	1
1	18	2	0.1	0.6	2	0.5748825407815734	1	1	0.5306224999949336	0.5928873080261542	2	0
1	19	2	0.1	0.6	2	0.566739473743372	1	1	0.3127988999476656	0.5496746021294476	2	0
1	20	2	0.1	0.6	2	0.472126578823394	1	1	1.075958300032653	0.5462336266164549	2	0
2	1	1	0.5	0.5	1	0.4759073028967881	1	1	0.3745458000339568	0.4047396890413049	1	1
2	2	1	0.5	0.5	1	0.5229809389318509	1	1	0.3128442000597715	0.5343833361716696	2	1
2	3	1	0.5	0.5	1	0.5772289786414689	1	2	0.2788135999580845	0.5109649619366622	2	0
2	4	1	0.5	0.5	1	0.4078445863897132	1	1	0.3089015000732616	0.42513677660157	1	1
2	5	1	0.5	0.5	1	0.4201855972923143	1	1	0.5001647999743	0.5641574068744843	2	1
2	6	1	0.5	0.5	1	0.5384389025921403	1	1	0.466166399884969	0.5402507465521281	1	1
2	7	1	0.5	0.5	1	0.5442626837769554	1	1	0.5933058999944478	0.4729234692464604	2	1
2	8	1	0.5	0.5	1	0.5520990916888664	1	1	1.06983259995468	0.5665984426105002	1	1
2	9	1	0.5	0.5	1	0.4400786509412454	1	2	0.462787099997513	0.5356650278952635	2	0
2	10	1	0.5	0.5	1	0.4257895013935129	1	1	0.5954905999824405	0.4977980780507404	2	1
2	11	1	0.5	0.5	1	0.5219421237668629	1	1	0.5540811000391841	0.453970775052436	2	1
2	12	1	0.5	0.5	1	0.4155193145403615	1	2	0.3530947000253946	0.4061826698325399	1	0
2	13	1	0.5	0.5	1	0.5690617410899068	1	2	0.5751297000097111	0.4128618884594908	1	0
2	14	1	0.5	0.5	1	0.4722572601107172	1	2	0.8371557999635115	0.4930297656734074	2	0
2	15	1	0.5	0.5	1	0.5571535221772782	1	1	0.5512349000200629	0.4551249552294943	2	1
2	16	1	0.5	0.5	1	0.531326121420993	1	1	0.3190422999905422	0.5854959917704547	2	1
2	17	1	0.5	0.5	1	0.568165141777999	1	2	0.4531581000192091	0.4874798553212955	1	0
2	18	1	0.5	0.5	1	0.484444524645938	1	1	0.9880225999513641	0.4626670452132864	2	1
2	19	1	0.5	0.5	1	0.5707013364313758	1	2	1.147859300021082	0.4133326459882352	2	0
2	20	1	0.5	0.5	1	0.5524005156027163	1	1	0.3174974999856204	0.4241812341483933	2	1
3	1	2	0.1	0.6	2	0.4730632239306891	1	2	0.9795250999741256	0.5830792839712785	1	1
3	2	2	0.1	0.6	2	0.4678093935107223	1	2	0.8453820999711752	0.5360682010900221	1	1
3	3	2	0.1	0.6	2	0.5272030658799708	1	2	0.5105335999978706	0.5602237480903073	1	1
3	4	2	0.1	0.6	2	0.5189402537821226	1	2	0.2739778000395745	0.4516670677997894	1	1
3	5	2	0.1	0.6	2	0.5141904741821137	1	2	0.3762793999630958	0.423256411999384	1	1
3	6	2	0.1	0.6	2	0.5343728983750646	1	2	0.3182094999356195	0.5649928536086469	1	1
3	7	2	0.1	0.6	2	0.418417910873378	1	2	0.5563053000951186	0.5576877515299981	2	1
3	8	2	0.1	0.6	2	0.4148918772237096	1	1	1.116998799960129	0.4018694089819551	2	0
3	9	2	0.1	0.6	2	0.5480244938075827	1	2	0.287743299966678	0.5491237578862826	2	1
3	10	2	0.1	0.6	2	0.5634967115928625	1	2	0.2364623000612482	0.4379637297012074	2	1
3	11	2	0.1	0.6	2	0.4871689187940123	1	1	0.3387800001073629	0.4772019244689606	2	0
3	12	2	0.1	0.6	2	0.5169474018606657	1	1	0.2337456999812275	0.5741174853373817	2	0
3	13	2	0.1	0.6	2	0.422624837454489	1	2	0.0006769000319764018	0.5116363890568553	2	1
3	14	2	0.1	0.6	2	0.5672340733114949	1	2	0.610852999961935	0.5651211086691705	1	1
3	15	2	0.1	0.6	2	0.5924988395917211	1	2	0.8574476999929175	0.4378167805052201	1	1
3	16	2	0.1	0.6	2	0.4075443102178882	1	2	0.6078298999927938	0.5084385720463634	2	1
3	17	2	0.1	0.6	2	0.5434228281867942	1	2	0.2937272998970002	0.4730692436637485	1	1
3	18	2	0.1	0.6	2	0.588560143718434	1	2	0.4995610000332817	0.5799294489966211	1	1
3	19	2	0.1	0.6	2	0.4739062235986595	1	2	0.4201589000876993	0.5757218784279357	1	1
3	20	2	0.1	0.6	2	0.4474428388665283	1	2	0.7524338999064639	0.59466958345843	1	1
4	1	1	0.5	0.5	1	0.5194465480370962	1	1	0.4890181999653578	0.4256208344978046	2	1
4	2	1	0.5	0.5	1	0.5679587593845845	1	2	0.3031220999546349	0.4329618808066807	2	0
4	3	1	0.5	0.5	1	0.4492092519496953	1	1	0.2979816999286413	0.4111795822084707	2	1
4	4	1	0.5	0.5	1	0.51644298297344	1	1	0.277559700072743	0.5696267763671954	2	1
4	5	1	0.5	0.5	1	0.455102506092811	1	1	0.3979226000374183	0.5492301164427305	1	1
4	6	1	0.5	0.5	1	0.431751837614344	1	2	0.4602294999640435	0.5246896906735454	2	0
4	7	1	0.5	0.5	1	0.4846466135228553	1	2	0.5975405999924988	0.579990638694207	2	0
4	8	1	0.5	0.5	1	0.5989489847954402	1	1	0.2831406000768766	0.4711695816727355	1	1
4	9	1	0.5	0.5	1	0.4961796476164579	1	1	0.4226007000543177	0.5966718216155071	1	1
4	10	1	0.5	0.5	1	0.4575205009873988	1	1	0.2759812999283895	0.4980831322183619	2	1
4	11	1	0.5	0.5	1	0.5477265539409623	1	1	0.2530733000021428	0.4405217720920975	2	1
4	12	1	0.5	0.5	1	0.4406349747284574	1	1	0.3174219999928027	0.490000573966539	2	1
4	13	1	0.5	0.5	1	0.5001835080930233	1	1	1.180409399908967	0.4251985481752009	1	1
4	14	1	0.5	0.5	1	0.5744509493771478	1	2	0.421176900039427	0.4134528747556555	2	0
4	15	1	0.5	0.5	1	0.4555646203931584	1	1	0.4000578999985009	0.5263106040392838	1	1
4	16	1	0.5	0.5	1	0.4239287549898885	1	1	0.93400470004417	0.5903036997654774	2	1
4	17	1	0.5	0.5	1	0.4851246891733106	1	1	0.6701250999467447	0.5818092702696808	1	1
4	18	1	0.5	0.5	1	0.5157901876349329	1	1	0.676985300029628	0.4759025111088031	2	1
4	19	1	0.5	0.5	1	0.4431001452451747	1	1	0.3833666000282392	0.4692899563194532	1	1
4	20	1	0.5	0.5	1	0.5634322381460055	1	2	0.4548743000486866	0.533769973826026	2	0
5	1	2	0.1	0.6	2	0.4440198171719313	1	2	1.207343799993396	0.4422499739591004	1	1
5	2	2	0.1	0.6	2	0.4436285829882164	1	2	0.2855662999209017	0.5481157516570836	1	1
5	3	2	0.1	0.6	2	0.4316664153331292	1	2	0.2690405999310315	0.5172557300823182	2	1
5	4	2	0.1	0.6	2	0.5998388096128564	1	2	0.4758177000330761	0.4654355053245394	2	1
5	5	2	0.1	0.6	2	0.4783092630839832	1	1	0.7394958999939263	0.5073791913826102	2	0
5	6	2	0.1	0.6	2	0.4175988270295281	1	2	0.4878756999969482	0.5853969772121523	1	1
5	7	2	0.1	0.6	2	0.5972523884043427	1	2	0.4877900000428781	0.4695729716734434	1	1
5	8	2	0.1	0.6	2	0.4940110469167537	1	1	0.274048599996604	0.4498552712467156	2	0
5	9	2	0.1	0.6	2	0.4760073981016454	1	2	0.3330023000016809	0.5186222577227202	1	1
5	10	2	0.1	0.6	2	0.538833016956663	1	2	0.3531245000194758	0.415332271331389	2	1
5	11	2	0.1	0.6	2	0.5120821403869555	1	2	0.3495323000242934	0.5407608308742332	2	1
5	12	2	0.1	0.6	2	0.557327925044547	1	2	0.2922269001137465	0.4582361124106642	1	1
5	13	2	0.1	0.6	2	0.435891233015539	1	2	0.7595133000286296	0.474936757491889	2	1
5	14	2	0.1	0.6	2	0.503298434320895	1	2	1.360990299959667	0.5121920847250602	1	1
5	15	2	0.1	0.6	2	0.4032315125106121	1	1	0.4445665000239387	0.4087130058037494	2	0
5	16	2	0.1	0.6	2	0.5395295296316573	1	1	0.4658013998996466	0.5494803740278743	2	0
5	17	2	0.1	0.6	2	0.4947364472721015	1	2	0.2914135999744758	0.5585470341114518	1	1
5	18	2	0.1	0.6	2	0.4299295038766437	1	1	0.9014397000428289	0.5287887898388222	2	0
5	19	2	0.1	0.6	2	0.5699285258506462	1	2	0.4686450998997316	0.4487789629740116	2	1
5	20	2	0.1	0.6	2	0.5304631710326368	1	2	0.4867466000141576	0.5922708628265307	2	1
6	1	2	0.1	0.6	2	0.427578433880362	1	1	0.9144397999625653	0.4556684149005345	2	0
6	2	2	0.1	0.6	2	0.4072666955761909	1	1	0.3999168999725953	0.5839546828744367	2	0
6	3	2	0.1	0.6	2	0.5506119633210043	1	2	0.3139703000197187	0.4195615890610049	1	1
6	4	2	0.1	0.6	2	0.5434588113927785	1	2	0.5453903999878094	0.5390246533664224	2	1
6	5	2	0.1	0.6	2	0.4151706341581991	1	2	0.4864815000910312	0.5717388600520584	2	1
6	6	2	0.1	0.6	2	0.4035401150722027	1	1	0.5325076999142766	0.4133171561114898	2	0
6	7	2	0.1	0.6	2	0.5407397750152649	1	1	0.4694659999804571	0.4546766080200775	2	0
6	8	2	0.1	0.6	2	0.518380713171648	1	2	0.2581164999864995	0.587205495278991	2	1
6	9	2	0.1	0.6	2	0.5386246111786078	1	2	1.230879499926232	0.4231881410410362	1	1
6	10	2	0.1	0.6	2	0.4520340419674335	1	2	0.6032950000371784	0.4498825579195191	1	1
6	11	2	0.1	0.6	2	0.5227113301841255	1	2	0.7255995000014082	0.570256865538436	1	1
6	12	2	0.1	0.6	2	0.5503755048048233	1	2	0.5605064999544993	0.5871280181881972	2	1
6	13	2	0.1	0.6	2	0.5162261766843899	1	1	0.8424298000754789	0.5954584736591699	2	0
6	14	2	0.1	0.6	2	0.464164234147895	1	2	0.4460996999405324	0.5830477039683106	2	1
6	15	2	0.1	0.6	2	0.4757058874973647	1	2	0.6293570999987423	0.4819308084741178	1	1
6	16	2	0.1	0.6	2	0.5077471955378365	1	2	0.7805175000103191	0.4214111007051266	2	1
6	17	2	0.1	0.6	2	0.5006980788702694	1	1	0.5991841000504792	0.4663337055363299	2	0
6	18	2	0.1	0.6	2	0.4128414830287826	1	1	0.8959156998898834	0.5600858430483762	2	0
6	19	2	0.1	0.6	2	0.5173499048686097	1	2	0.365836099954322	0.5933500937311837	1	1
6	20	2	0.1	0.6	2	0.5529309117952322	1	2	0.5907856000121683	0.5555417244925632	1	1
7	1	1	0.5	0.5	1	0.4820267205661185	1	1	0.6861190999625251	0.4073096866994478	1	1
7	2	1	0.5	0.5	1	0.4717280608466853	1	1	0.8399798000464216	0.4051632480352551	1	1
7	3	1	0.5	0.5	1	0.5455405360484249	1	1	0.6918190999422222	0.4952736778080988	2	1
7	4	1	0.5	0.5	1	0.4171665197252268	1	1	1.006822300027125	0.4827420363633039	1	1
7	5	1	0.5	0.5	1	0.4132832306322648	1	1	0.2947179999900982	0.4091653087072563	2	1
7	6	1	0.5	0.5	1	0.4729371861831768	1	1	0.4965546999592334	0.4566242590043689	2	1
7	7	1	0.5	0.5	1	0.4414565188120262	1	1	0.7189123000716791	0.5996724870531611	2	1
7	8	1	0.5	0.5	1	0.4890346647571013	1	1	0.6859146000351757	0.5365824902975279	1	1
7	9	1	0.5	0.5	1	0.4397122289780336	1	1	0.5352173999417573	0.5788524533712509	2	1
7	10	1	0.5	0.5	1	0.5162367531358394	1	1	0.5158517999807373	0.5659846795882746	1	1
7	11	1	0.5	0.5	1	0.5495893197014911	1	2	0.08406030002515763	0.4583959664852009	2	0
7	12	1	0.5	0.5	1	0.5885546899489974	1	1	0.5319435000419617	0.5860892474946805	2	1
7	13	1	0.5	0.5	1	0.4749079914343437	1	1	0.9286030000075698	0.5512277283929909	1	1
7	14	1	0.5	0.5	1	0.4260930095156484	1	2	0.4943094999762252	0.5344290894284928	2	0
7	15	1	0.5	0.5	1	0.447637990373161	1	2	0.0004565000999718904	0.4730148206930469	2	0
7	16	1	0.5	0.5	1	0.4723370488612989	1	1	1.31363940006122	0.5836291449054842	2	1
7	17	1	0.5	0.5	1	0.4933885915859217	1	1	0.4819606000091881	0.5016303604839643	2	1
7	18	1	0.5	0.5	1	0.4228541015469216	1	1	0.2989687999943271	0.4817592533468573	1	1
7	19	1	0.5	0.5	1	0.5887952892658365	1	2	0.5580713000381365	0.4535414460186037	1	0
7	20	1	0.5	0.5	1	0.5702652435607066	1	2	0.4632239999482408	0.4369044823887806	2	0
8	1	1	0.5	0.5	1	0.4102927156087337	1	1	0.8037546999985352	0.4752285499469404	2	1
8	2	1	0.5	0.5	1	0.4488915796194191	1	2	0.4119339999742806	0.5073900632981239	1	0
8	3	1	0.5	0.5	1	0.5074706482111087	1	2	0.7742467999923974	0.5196763477106209	1	0
8	4	1	0.5	0.5	1	0.4457981881049092	1	1	0.5665319999679923	0.4424640601329907	2	1
8	5	1	0.5	0.5	1	0.5860182215306156	1	1	0.2860012999735773	0.5041070338147299	2	1
8	6	1	0.5	0.5	1	0.5956188206185113	1	2	0.304916900000535	0.5936261380493528	2	0
8	7	1	0.5	0.5	1	0.4564640342916317	1	2	0.4018871000735089	0.5532638961360369	2	0
8	8	1	0.5	0.5	1	0.4901518193787835	1	2	0.0006820999551564455	0.5759587184258215	1	0
8	9	1	0.5	0.5	1	0.4931149984428819	1	1	1.214883600012399	0.4777229257838907	1	1
8	10	1	0.5	0.5	1	0.4895716931640306	0	n/a	n/a	n/a	n/a	n/a
8	11	1	0.5	0.5	1	0.5857424280880246	1	1	0.55936020007357	0.4790181126471816	2	1
8	12	1	0.5	0.5	1	0.4454329708568874	1	1	0.5949961999431252	0.512115159104862	2	1
8	13	1	0.5	0.5	1	0.5864220603849348	1	1	0.2552347999298945	0.5852461308069581	2	1
8	14	1	0.5	0.5	1	0.4614800035509732	1	2	0.2884695999091491	0.4861970203159609	1	0
8	15	1	0.5	0.5	1	0.5093039404954613	1	2	0.120278799906373	0.419568673793676	1	0
8	16	1	0.5	0.5	1	0.476678802935162	1	2	0.4349323000060394	0.516017795816322	2	0
8	17	1	0.5	0.5	1	0.4689814138022008	1	2	0.5387003000359982	0.5678126997255839	2	0
8	18	1	0.5	0.5	1	0.4346993362579125	1	2	0.5097073999932036	0.5393949288618809	2	0
8	19	1	0.5	0.5	1	0.512430754262498	1	2	0.2663322000298649	0.5985593870816631	2	0
8	20	1	0.5	0.5	1	0.5305347300835909	1	1	0.4931990000186488	0.5378505368325475	1	1
9	1	2	0.6	0.1	1	0.457522643044953	1	1	1.023960599908605	0.5617348780319016	2	1
9	2	2	0.6	0.1	1	0.5724006248851108	1	2	0.3193545000394806	0.500878839967047	2	0
9	3	2	0.6	0.1	1	0.4662478618879408	1	2	0.8268809999572113	0.4297634192187594	2	0
9	4	2	0.6	0.1	1	0.5012663872221568	1	1	0.2911340000573546	0.453667531456991	2	1
9	5	2	0.6	0.1	1	0.4306561752284299	1	2	0.3244370999746025	0.519066547692145	2	0
9	6	2	0.6	0.1	1	0.5997750204422229	1	2	0.2999905999749899	0.4673826625993537	2	0
9	7	2	0.6	0.1	1	0.4582210588988838	1	1	0.2993501999881119	0.5094632802533412	2	1
9	8	2	0.6	0.1	1	0.5439520738950804	1	1	0.384402499999851	0.4683042528012059	2	1
9	9	2	0.6	0.1	1	0.5784925088006698	1	1	0.3853957999963313	0.5432624242115088	1	1
9	10	2	0.6	0.1	1	0.4593709061012881	1	2	0.3622037000022829	0.4761792445816208	2	0
9	11	2	0.6	0.1	1	0.4685828011019838	1	2	0.3825022999662906	0.4014641329205772	2	0
9	12	2	0.6	0.1	1	0.4290669809980993	1	1	0.6364508999977261	0.5294012880331462	1	1
9	13	2	0.6	0.1	1	0.5483688930173787	1	1	0.4897877000039443	0.5263314848757756	1	1
9	14	2	0.6	0.1	1	0.5576954074501449	1	1	0.7320918999612331	0.5550897844375554	1	1
9	15	2	0.6	0.1	1	0.5113514112031603	1	1	0.3524313999805599	0.4550587583610396	2	1
9	16	2	0.6	0.1	1	0.576367968720645	1	1	0.5836548999650404	0.5662512837583007	1	1
9	17	2	0.6	0.1	1	0.5848787837850635	1	1	0.3611950000049546	0.418241560072109	1	1
9	18	2	0.6	0.1	1	0.4997653588666841	1	1	0.7394290000665933	0.4529937865213801	1	1
9	19	2	0.6	0.1	1	0.4264250436348334	1	1	0.4954262999817729	0.4713491091490608	2	1
9	20	2	0.6	0.1	1	0.5660264743014539	1	1	0.3210080000571907	0.4025269079376562	2	1
10	1	1	0.5	0.5	1	0.4213058820027261	1	2	1.135245700017549	0.4612189567514638	1	0
10	2	1	0.5	0.5	1	0.4169229231563706	1	1	0.4793671999359503	0.4785759699410116	1	1
10	3	1	0.5	0.5	1	0.4564124384459015	1	2	0.290363899897784	0.5683037628809546	1	0
10	4	1	0.5	0.5	1	0.5737076806818491	1	1	0.2591702999779955	0.4938876189158044	2	1
10	5	1	0.5	0.5	1	0.4768767331255495	1	1	0.2987074999837205	0.5644569521722846	2	1
10	6	1	0.5	0.5	1	0.4772107835151341	1	1	0.9691754000959918	0.4983978031377143	1	1
10	7	1	0.5	0.5	1	0.4138557719270025	1	2	0.6096324999816716	0.545016359208095	2	0
10	8	1	0.5	0.5	1	0.4670972956882026	1	2	0.1173347000731155	0.5366302225974243	2	0
10	9	1	0.5	0.5	1	0.4803478559689685	1	2	0.587716699927114	0.5157844218302406	2	0
10	10	1	0.5	0.5	1	0.4383114144555713	1	2	0.4618017000611871	0.5665149535031683	1	0
10	11	1	0.5	0.5	1	0.5526538550701247	1	1	1.252916399971582	0.4934203468258663	2	1
10	12	1	0.5	0.5	1	0.4012050150672293	1	2	0.4045525999972597	0.4953852491959665	2	0
10	13	1	0.5	0.5	1	0.4889507680727303	1	1	0.9357663999544457	0.4010232998109987	2	1
10	14	1	0.5	0.5	1	0.4543165916543672	1	2	1.185395900043659	0.4799360376371004	1	0
10	15	1	0.5	0.5	1	0.4271011277871426	1	1	0.5788880999898538	0.5627364530508362	2	1
10	16	1	0.5	0.5	1	0.4363677557151492	1	1	0.6307175999972969	0.4248263882327093	2	1
10	17	1	0.5	0.5	1	0.5452351993121944	1	2	0.5364986999193206	0.504068375325668	2	0
10	18	1	0.5	0.5	1	0.4150772052240724	1	1	1.653373399982229	0.5689551582670547	2	1
10	19	1	0.5	0.5	1	0.5333743932538818	1	2	0.5835540000116453	0.5809947992377356	1	0
10	20	1	0.5	0.5	1	0.5057819984782412	1	1	0.6012996999779716	0.4396780359615892	2	1
11	1	2	0.6	0.1	1	0.4147592777574629	1	1	0.594889200059697	0.4892181572538906	1	1
11	2	2	0.6	0.1	1	0.4875652399498743	1	1	0.2922436000080779	0.4654570736053569	1	1
11	3	2	0.6	0.1	1	0.4553252502881686	1	1	0.6086618999252096	0.4962676685020512	1	1
11	4	2	0.6	0.1	1	0.5005699820292722	1	1	1.166993300081231	0.517807218403038	1	1
11	5	2	0.6	0.1	1	0.5352394695484367	1	2	0.8600426000775769	0.4585209701021573	2	0
11	6	2	0.6	0.1	1	0.5224115586572544	1	1	0.3436367999529466	0.5446472871336439	1	1
11	7	2	0.6	0.1	1	0.4793690669411698	1	1	1.482332499930635	0.4100552245795469	1	1
11	8	2	0.6	0.1	1	0.4529151929253057	1	1	0.5981383000034839	0.4757412477287764	2	1
11	9	2	0.6	0.1	1	0.5288994660502022	1	1	0.5209683000575751	0.4090613088192958	1	1
11	10	2	0.6	0.1	1	0.535401165284304	1	1	0.4549707999685779	0.5695915936015699	2	1
11	11	2	0.6	0.1	1	0.5932844450095848	1	1	0.8634390999795869	0.4797440321559205	1	1
11	12	2	0.6	0.1	1	0.421700518704936	1	1	0.8969530999893323	0.4843499957024623	2	1
11	13	2	0.6	0.1	1	0.4989637936513982	1	1	1.874978999956511	0.5158337037557708	2	1
11	14	2	0.6	0.1	1	0.529074337587531	1	1	0.2960498000029474	0.5309633391682953	1	1
11	15	2	0.6	0.1	1	0.5124676815494696	1	1	0.4698122000554577	0.5542314482082408	1	1
11	16	2	0.6	0.1	1	0.5255080575576023	1	1	0.8959333999082446	0.5232432982075619	2	1
11	17	2	0.6	0.1	1	0.427213540523115	1	1	0.6234448999166489	0.4076680238138773	1	1
11	18	2	0.6	0.1	1	0.4350630083857737	1	1	1.164366199984215	0.4274105491181092	1	1
11	19	2	0.6	0.1	1	0.4286604304021863	1	2	0.9262292999774218	0.5015762719691919	2	0
11	20	2	0.6	0.1	1	0.4084967679696235	1	2	0.4792998998891562	0.5223162402409224	2	0
12	1	2	0.1	0.6	2	0.5653283307680281	1	2	0.6738692000508308	0.5467317933093834	1	1
12	2	2	0.1	0.6	2	0.4903123066721917	1	2	0.4529274000087753	0.4481722808164203	2	1
12	3	2	0.1	0.6	2	0.4460053672158374	1	2	0.3149409000761807	0.5518275309986278	1	1
12	4	2	0.1	0.6	2	0.587096938822653	1	1	0.3219677000306547	0.5012578356374373	2	0
12	5	2	0.1	0.6	2	0.4462868102219637	1	1	0.3035536999814212	0.4061579512624341	2	0
12	6	2	0.1	0.6	2	0.5121757854378812	1	1	0.4458898999728262	0.5230527227488174	2	0
12	7	2	0.1	0.6	2	0.4967615642732162	1	2	0.430699500022456	0.5747428130357789	1	1
12	8	2	0.1	0.6	2	0.4935622190918647	1	2	0.3666179999709129	0.4085356902371037	1	1
12	9	2	0.1	0.6	2	0.5963053928026428	1	2	0.4128711000084877	0.4982965290045666	2	1
12	10	2	0.1	0.6	2	0.5923929119053006	1	2	0.238589399959892	0.5755021980816442	2	1
12	11	2	0.1	0.6	2	0.5042095306215031	1	2	0.3985734999878332	0.5524254879694614	1	1
12	12	2	0.1	0.6	2	0.413614399242603	1	2	0.5258658999809995	0.4525807889868002	2	1
12	13	2	0.1	0.6	2	0.4954372906670985	1	2	0.3116003000177443	0.5252863365730165	1	1
12	14	2	0.1	0.6	2	0.4619100699958139	1	2	0.493582500028424	0.5816517182236216	1	1
12	15	2	0.1	0.6	2	0.5830308373121192	1	2	0.3374563000397757	0.5632503496460348	1	1
12	16	2	0.1	0.6	2	0.469684344602066	1	2	1.096090200007893	0.5076826008580161	2	1
12	17	2	0.1	0.6	2	0.5068221763780395	1	2	0.7508377999765798	0.534484917294015	2	1
12	18	2	0.1	0.6	2	0.4166202949181574	1	2	0.7827695999294519	0.4508267798737249	1	1
12	19	2	0.1	0.6	2	0.5465645456362458	1	1	0.1411971000488847	0.5491079432176725	2	0
12	20	2	0.1	0.6	2	0.5888560841483944	1	1	0.3815776000265032	0.5101462963168795	2	0
13	1	1	0.5	0.5	1	0.5997198781132712	1	1	0.6609840000746772	0.5144242784218654	2	1
13	2	1	0.5	0.5	1	0.5472525683440648	1	1	0.3923419000348076	0.4434623293834333	1	1
13	3	1	0.5	0.5	1	0.4653823255065752	1	2	0.2487900999840349	0.4870867324735724	2	0
13	4	1	0.5	0.5	1	0.5458590008080566	1	1	0.321529500070028	0.4368415752144604	2	1
13	5	1	0.5	0.5	1	0.5740405968284257	1	1	0.3164066000608727	0.5087740883846266	2	1
13	6	1	0.5	0.5	1	0.5108114472767906	1	1	0.4853484999621287	0.5074295459016838	1	1
13	7	1	0.5	0.5	1	0.5915607157626495	1	2	0.4231417999835685	0.5037523584178213	1	0
13	8	1	0.5	0.5	1	0.5500256055075434	1	1	0.7559129999717698	0.4338990711035643	1	1
13	9	1	0.5	0.5	1	0.5148076044920116	1	2	0.6075661999639124	0.5061817160665284	2	0
13	10	1	0.5	0.5	1	0.4789478154553085	1	1	0.452803699998185	0.4095068708101253	1	1
13	11	1	0.5	0.5	1	0.4418655889893552	1	1	0.3059032999444753	0.5789498707063541	1	1
13	12	1	0.5	0.5	1	0.494097884620614	1	1	0.4796675000106916	0.4759614324931451	1	1
13	13	1	0.5	0.5	1	0.5845919665683236	1	1	0.2912853000452742	0.5427278135310054	2	1
13	14	1	0.5	0.5	1	0.4536549732369939	1	1	0.5419982000021264	0.5361481435914586	2	1
13	15	1	0.5	0.5	1	0.4183345002582453	1	1	0.5350116000045091	0.5007221657797152	1	1
13	16	1	0.5	0.5	1	0.573600949828025	1	2	0.3880008000414819	0.5330897512019424	2	0
13	17	1	0.5	0.5	1	0.5333214093254138	1	1	0.3219121999572963	0.5248388656242887	1	1
13	18	1	0.5	0.5	1	0.4856385578720023	1	1	0.6732105000410229	0.448212130382558	1	1
13	19	1	0.5	0.5	1	0.4364750935955715	1	1	0.4617360000265762	0.4957637281179218	1	1
13	20	1	0.5	0.5	1	0.5010758001263818	1	1	0.4655250000068918	0.415979306222786	1	1
14	1	1	0.5	0.5	1	0.5169385515879692	1	2	0.5293910000473261	0.5558101428734444	2	0
14	2	1	0.5	0.5	1	0.5426942035687657	1	1	0.2742736000800505	0.4645861290598446	1	1
14	3	1	0.5	0.5	1	0.4740659983202995	1	1	0.6364424000494182	0.4031003290128607	1	1
14	4	1	0.5	0.5	1	0.5692168474581165	1	2	0.334000299917534	0.4796904737447942	1	0
14	5	1	0.5	0.5	1	0.5878840059814946	1	2	0.4169727999251336	0.4913027672095133	1	0
14	6	1	0.5	0.5	1	0.5181921541550567	1	1	0.5719067000318319	0.5145792710669724	2	1
14	7	1	0.5	0.5	1	0.4132561178164836	1	1	0.2640951999928802	0.4651220220412187	1	1
14	8	1	0.5	0.5	1	0.558479617416126	1	1	1.065813400084153	0.5389907431315005	2	1
14	9	1	0.5	0.5	1	0.4825498991319157	1	1	0.5487078999867663	0.5465355619913153	1	1
14	10	1	0.5	0.5	1	0.4196078364181037	1	1	0.5065262001007795	0.5943857266041661	2	1
14	11	1	0.5	0.5	1	0.5321948277530038	1	2	0.1219101999886334	0.5126928810338881	2	0
14	12	1	0.5	0.5	1	0.5997019447452091	1	2	0.4703049999661744	0.5929965441357897	2	0
14	13	1	0.5	0.5	1	0.5288654937449407	1	2	0.1779090000782162	0.4406648739675351	2	0
14	14	1	0.5	0.5	1	0.5637643591166753	1	2	0.2720833000494167	0.5643999362758776	1	0
14	15	1	0.5	0.5	1	0.5511526547208507	1	1	0.4676326999906451	0.571895483125997	2	1
14	16	1	0.5	0.5	1	0.5892004859539149	1	1	0.4537173999706283	0.5084192105047467	2	1
14	17	1	0.5	0.5	1	0.4823371051325965	1	1	0.48002739995718	0.4127076145492071	2	1
14	18	1	0.5	0.5	1	0.4612486825857189	1	1	0.4783473999705166	0.4345848536649453	1	1
14	19	1	0.5	0.5	1	0.419287433073673	1	2	0.5974604999646544	0.4650468800091649	2	0
14	20	1	0.5	0.5	1	0.4232795689932199	1	1	0.411872599972412	0.5390069272847111	1	1
15	1	2	0.6	0.1	1	0.4354921171129985	1	2	1.740486599970609	0.5274599776812738	2	0
15	2	2	0.6	0.1	1	0.5156557144831704	1	2	1.236960100010037	0.4437718025913814	2	0
15	3	2	0.6	0.1	1	0.5695114334352243	1	1	0.5673992999363691	0.4364120257521727	1	1
15	4	2	0.6	0.1	1	0.5659527830601353	1	1	0.3018003000179306	0.454073276543994	2	1
15	5	2	0.6	0.1	1	0.4379209677691079	1	1	0.2977026000153273	0.5227910985987574	1	1
15	6	2	0.6	0.1	1	0.5813901540826034	1	1	0.5359488999238238	0.5514810208363062	1	1
15	7	2	0.6	0.1	1	0.552212609523665	1	1	0.8740144999464974	0.4663256391050148	1	1
15	8	2	0.6	0.1	1	0.4418890103859529	1	1	1.487276599975303	0.5228050534417719	1	1
15	9	2	0.6	0.1	1	0.5350548426035865	1	1	0.3755609999643639	0.5742475885210958	1	1
15	10	2	0.6	0.1	1	0.4001087974129793	1	1	0.7665811000624672	0.5658983239859022	1	1
15	11	2	0.6	0.1	1	0.4570735223203102	1	1	0.6716361999278888	0.5305369088737264	1	1
15	12	2	0.6	0.1	1	0.4294806780862371	1	1	1.113683999981731	0.4683047818596888	1	1
15	13	2	0.6	0.1	1	0.4857330150702427	1	1	0.8990617000963539	0.4615406535120767	2	1
15	14	2	0.6	0.1	1	0.4914190292673425	1	1	0.3647020999342203	0.5744568987438647	2	1
15	15	2	0.6	0.1	1	0.5969938129997785	1	1	0.5443201999878511	0.5927981280673327	2	1
15	16	2	0.6	0.1	1	0.5818051539847423	0	n/a	n/a	n/a	n/a	n/a
15	17	2	0.6	0.1	1	0.4391948960320224	1	1	0.3738521999912336	0.5097816914529647	1	1
15	18	2	0.6	0.1	1	0.4592486111529412	1	2	0.7080221999203786	0.5558665864597688	2	0
15	19	2	0.6	0.1	1	0.4062112653638735	1	1	0.3787089000688866	0.4236827154706354	1	1
15	20	2	0.6	0.1	1	0.4220079179945596	1	1	0.8216147000202909	0.5458529035802985	2	1
16	1	2	0.6	0.1	1	0.5599944873075219	1	2	0.7262780000455678	0.4620770830826033	2	0
16	2	2	0.6	0.1	1	0.4046550113888571	1	1	0.3616440000478178	0.5344749036407948	1	1
16	3	2	0.6	0.1	1	0.4737315135822336	1	1	0.6270048000151291	0.4746012117273445	1	1
16	4	2	0.6	0.1	1	0.479188467655179	1	1	0.5827308999141678	0.4243135193179162	2	1
16	5	2	0.6	0.1	1	0.5413595522509779	1	1	0.5955876000225544	0.4233929589636571	1	1
16	6	2	0.6	0.1	1	0.4612387893415029	1	1	0.6037298999726772	0.4694514686327526	1	1
16	7	2	0.6	0.1	1	0.5259178745077845	1	1	0.8725486000766978	0.4846487351073477	1	1
16	8	2	0.6	0.1	1	0.4892800236772005	1	1	1.0560660000192	0.5656002949673384	2	1
16	9	2	0.6	0.1	1	0.4530711600300441	1	1	0.5679827000712976	0.4756494715888235	2	1
16	10	2	0.6	0.1	1	0.4559722292219953	1	1	0.8759552000556141	0.4990652744684058	2	1
16	11	2	0.6	0.1	1	0.4493089120829412	1	1	0.9775662000756711	0.582517921463622	1	1
16	12	2	0.6	0.1	1	0.4238899860679901	1	2	0.4781850000144914	0.5444578540020969	2	0
16	13	2	0.6	0.1	1	0.5092141340898031	1	1	0.3722359000239521	0.5672828939471032	1	1
16	14	2	0.6	0.1	1	0.5859434701324763	1	1	1.109319800045341	0.5697550926143955	2	1
16	15	2	0.6	0.1	1	0.5540976620421958	1	1	0.7676525000715628	0.4178349146996581	2	1
16	16	2	0.6	0.1	1	0.549855638372575	1	1	0.1007159999571741	0.5361999017622447	1	1
16	17	2	0.6	0.1	1	0.5701839885188327	1	2	1.841820499976166	0.5242793555521448	2	0
16	18	2	0.6	0.1	1	0.4292156534801319	1	2	1.320679800002836	0.5566549575381684	2	0
16	19	2	0.6	0.1	1	0.4338308001638795	1	1	0.3938096999190748	0.5320950186537605	2	1
16	20	2	0.6	0.1	1	0.4716721241924335	1	2	0.5431480000261217	0.4818473888911995	2	0
17	1	1	0.5	0.5	1	0.4554688152257684	1	2	1.355067899916321	0.550397914474729	1	0
17	2	1	0.5	0.5	1	0.4058736776243111	1	2	0.4140866999514401	0.4888251432493639	1	0
17	3	1	0.5	0.5	1	0.4167998383416708	1	1	1.405396300018765	0.5139933218272186	2	1
17	4	1	0.5	0.5	1	0.4767067765923498	1	2	0.4160681999055669	0.4552993348603694	1	0
17	5	1	0.5	0.5	1	0.4666126283048542	1	2	0.3268575000111014	0.5128205299539105	2	0
17	6	1	0.5	0.5	1	0.4623009088798563	1	2	1.112364400061779	0.5887624431554211	1	0
17	7	1	0.5	0.5	1	0.4363257965430685	1	1	0.8843375000869855	0.4643198540109224	2	1
17	8	1	0.5	0.5	1	0.4778944222636801	1	2	1.229770299978554	0.5613253764004454	1	0
17	9	1	0.5	0.5	1	0.5787348887981513	1	1	1.01116200000979	0.4865848885063079	1	1
17	10	1	0.5	0.5	1	0.5657920266502741	1	2	0.6345904000336304	0.4430039977137481	2	0
17	11	1	0.5	0.5	1	0.429427489357866	1	2	0.6284522999776527	0.4354314508771833	2	0
17	12	1	0.5	0.5	1	0.4879809871735032	1	2	0.8664092000108212	0.579193851118837	2	0
17	13	1	0.5	0.5	1	0.5380720387265676	1	2	0.3457498999778181	0.4065377804968883	1	0
17	14	1	0.5	0.5	1	0.4018654846013172	1	2	0.9412200000369921	0.5263816187373778	1	0
17	15	1	0.5	0.5	1	0.4207193690025818	1	2	1.409497100044973	0.5488524245926585	2	0
17	16	1	0.5	0.5	1	0.5646310965735709	1	1	0.4239093000069261	0.4254169684884822	2	1
17	17	1	0.5	0.5	1	0.4724896175109729	1	2	0.471766599919647	0.4009094660491393	1	0
17	18	1	0.5	0.5	1	0.4266457845111329	1	2	0.7657084999373183	0.5945834327441151	1	0
17	19	1	0.5	0.5	1	0.5474961782094968	1	2	1.021085300017148	0.4975705824748348	1	0
17	20	1	0.5	0.5	1	0.4646440064166609	1	2	0.4378099999157712	0.4863051721749359	2	0
18	1	1	0.5	0.5	1	0.5157921699352426	1	1	0.7766158999875188	0.5272378592979337	1	1
18	2	1	0.5	0.5	1	0.5054165070309472	1	1	0.5382545000175014	0.4190466387965136	2	1
18	3	1	0.5	0.5	1	0.5148949729870499	1	1	0.3233020000625402	0.5719345056046015	2	1
18	4	1	0.5	0.5	1	0.5294443966613989	1	1	0.2629014999838546	0.4516352889209903	1	1
18	5	1	0.5	0.5	1	0.4697633499818834	1	2	0.5881730000255629	0.5722792078620416	2	0
18	6	1	0.5	0.5	1	0.4474537354971043	1	1	0.4068029000191018	0.546977048919134	1	1
18	7	1	0.5	0.5	1	0.4103339158814411	1	2	0.4796725999331102	0.5178254057526133	1	0
18	8	1	0.5	0.5	1	0.5016473966210477	1	1	0.5214165000943467	0.5540190043701625	2	1
18	9	1	0.5	0.5	1	0.5965126129128049	1	1	0.2271200999384746	0.4209985591173482	2	1
18	10	1	0.5	0.5	1	0.4612465995189333	1	1	0.2851095999358222	0.5842621359587993	1	1
18	11	1	0.5	0.5	1	0.4573205970421174	1	2	0.4927386000053957	0.4655834966097543	2	0
18	12	1	0.5	0.5	1	0.509268537751481	1	2	0.2866562000708655	0.5058215469727445	1	0
18	13	1	0.5	0.5	1	0.419781323438286	1	1	1.309971299953759	0.4406465489139826	1	1
18	14	1	0.5	0.5	1	0.4211848067063245	1	1	0.5105959000065923	0.5691907503928884	2	1
18	15	1	0.5	0.5	1	0.5174189052551946	1	1	0.2964217000408098	0.4633613576137829	2	1
18	16	1	0.5	0.5	1	0.5830311991821624	1	2	0.6746798999374732	0.4734466894190804	2	0
18	17	1	0.5	0.5	1	0.5143827855313789	1	2	0.592054900014773	0.5716207863244455	1	0
18	18	1	0.5	0.5	1	0.4945915373421326	1	2	0.8168351000640541	0.498736904676976	2	0
18	19	1	0.5	0.5	1	0.5227710569098987	1	1	0.8499298000242561	0.485682614398431	2	1
18	20	1	0.5	0.5	1	0.4301327186207634	1	1	0.4637462999671698	0.538228771886975	2	1
19	1	2	0.6	0.1	1	0.443330270927958	1	2	0.5897714000893757	0.426163750234158	2	0
19	2	2	0.6	0.1	1	0.4539043351768575	1	2	0.3241426000604406	0.4679600652523899	2	0
19	3	2	0.6	0.1	1	0.5919097070919435	1	2	0.4518918000394478	0.5282508007777204	2	0
19	4	2	0.6	0.1	1	0.4716559164524763	1	1	0.3168642999371514	0.5933459127027922	2	1
19	5	2	0.6	0.1	1	0.5710613500293065	1	1	0.5572408000007272	0.562414975343461	1	1
19	6	2	0.6	0.1	1	0.5594647427251387	1	1	0.6117027000291273	0.461725605980746	1	1
19	7	2	0.6	0.1	1	0.4428099902367007	1	1	0.540927299996838	0.4252792949317064	1	1
19	8	2	0.6	0.1	1	0.5579395629150096	1	1	0.5939335000002757	0.5547344326437951	2	1
19	9	2	0.6	0.1	1	0.5924677818229983	1	1	0.4433617999311537	0.4227904049920388	1	1
19	10	2	0.6	0.1	1	0.5725358749793199	1	1	0.9208795999875292	0.5604504796412332	2	1
19	11	2	0.6	0.1	1	0.5919001048483269	1	1	0.45781949989032	0.4756314711811471	1	1
19	12	2	0.6	0.1	1	0.4161579084193639	1	1	1.755878799944185	0.5810969269290843	1	1
19	13	2	0.6	0.1	1	0.5633589275670665	1	1	0.6861980999819934	0.462406213001677	2	1
19	14	2	0.6	0.1	1	0.4927654169530586	1	1	0.5713991000084206	0.5522813434853245	2	1
19	15	2	0.6	0.1	1	0.5165382145722495	1	1	0.5395378000102937	0.4798466218319133	2	1
19	16	2	0.6	0.1	1	0.4699271249957768	1	1	0.6821547999279574	0.5953672646830994	1	1
19	17	2	0.6	0.1	1	0.5999667931649911	1	2	0.599645100068301	0.433011640588102	2	0
19	18	2	0.6	0.1	1	0.5018833162162674	1	1	0.4312877999618649	0.4182228678391648	1	1
19	19	2	0.6	0.1	1	0.466272126429455	1	1	1.043929199920967	0.4823271021378929	2	1
19	20	2	0.6	0.1	1	0.4852261700954788	1	1	0.3639882999705151	0.4766842656285067	1	1
20	1	1	0.5	0.5	1	0.431373427564322	1	2	0.3974072999553755	0.5488360306489497	1	0
20	2	1	0.5	0.5	1	0.5967227868348282	1	2	0.6860005001071841	0.5913239631795918	1	0
20	3	1	0.5	0.5	1	0.5897336306761812	1	2	0.6797615999821573	0.5043508604352716	2	0
20	4	1	0.5	0.5	1	0.4169829265050599	1	2	0.6086370000848547	0.5587524880385154	2	0
20	5	1	0.5	0.5	1	0.5659071606753492	1	2	0.3314717999892309	0.4702845791390749	2	0
20	6	1	0.5	0.5	1	0.591773200942965	1	2	0.2352067000465468	0.5186579855775266	1	0
20	7	1	0.5	0.5	1	0.5284956841421801	1	2	0.5322001000167802	0.5190678079469783	2	0
20	8	1	0.5	0.5	1	0.4006733462584487	1	2	0.5111209000460804	0.4768087711572959	2	0
20	9	1	0.5	0.5	1	0.5810320196622687	1	2	0.5190205000108108	0.4115093039167005	2	0
20	10	1	0.5	0.5	1	0.5268302622417274	1	2	0.2857147000031546	0.5407732554670354	2	0
20	11	1	0.5	0.5	1	0.4475607763393801	1	1	0.2953481000149623	0.5509213652794348	1	1
20	12	1	0.5	0.5	1	0.4859011143159855	1	1	0.3285917999455705	0.4618558841752691	2	1
20	13	1	0.5	0.5	1	0.5215694790095622	1	1	0.2572484000120312	0.4532827589088123	2	1
20	14	1	0.5	0.5	1	0.5349114462776692	1	2	0.3600984000368044	0.557763279756081	2	0
20	15	1	0.5	0.5	1	0.4268062432133906	1	2	0.3568618999561295	0.5498002627110623	1	0
20	16	1	0.5	0.5	1	0.5332031113774867	1	2	1.571987200062722	0.5457144186004158	1	0
20	17	1	0.5	0.5	1	0.5011064483153972	1	1	0.8618280999362469	0.5661895045784291	2	1
20	18	1	0.5	0.5	1	0.4413168771333232	1	1	0.3079261999810115	0.5283497179000659	1	1
20	19	1	0.5	0.5	1	0.4527870490858625	1	2	1.045329299988225	0.4126233812977212	2	0
20	20	1	0.5	0.5	1	0.5325447669855206	1	1	0.2864047000184655	0.5286111318072695	1	1
