blockNum	trialNum	condition	pWin1	pWin2	optimalResponse	preStimulusDelay	responded	response	rt	preFeedbackDelay	outcome	optimal
1	1	2	0.6	0.1	1	0.4573089975872128	1	1	1.817244300153106	0.4484418542681245	1	1
1	2	2	0.6	0.1	1	0.5944600664407247	1	1	1.17255189968273	0.5399499290373349	1	1
1	3	2	0.6	0.1	1	0.4077126948577441	1	2	1.729640800040215	0.5329078760295651	2	0
1	4	2	0.6	0.1	1	0.4106532600602499	1	2	0.573000599630177	0.5967656936683958	2	0
1	5	2	0.6	0.1	1	0.456438198557192	1	1	0.3769974000751972	0.4041366965847205	2	1
1	6	2	0.6	0.1	1	0.4756968049337806	1	2	0.4530997998081148	0.5548221786704646	2	0
1	7	2	0.6	0.1	1	0.4715010713766661	1	1	0.4030566001310945	0.4301988856323243	1	1
1	8	2	0.6	0.1	1	0.5535783104185747	1	1	0.4112662998959422	0.4796202164515497	1	1
1	9	2	0.6	0.1	1	0.5756970975946523	1	2	0.2925758003257215	0.4690926317342187	2	0
1	10	2	0.6	0.1	1	0.4996241666033508	1	1	0.3698733001947403	0.4796191933441099	1	1
1	11	2	0.6	0.1	1	0.5841427784215356	1	2	0.8021244001574814	0.4528037949521359	2	0
1	12	2	0.6	0.1	1	0.4748979139840944	1	2	0.211651399731636	0.4985844292431396	2	0
1	13	2	0.6	0.1	1	0.4247337149381435	1	1	0.2762688999064267	0.4802940068041777	1	1
1	14	2	0.6	0.1	1	0.5958951952757474	1	2	1.051119100302458	0.5044229075443392	1	0
1	15	2	0.6	0.1	1	0.4966772682971938	1	2	0.243652599863708	0.4209208185972164	2	0
1	16	2	0.6	0.1	1	0.4846715877431239	1	1	0.2015256998129189	0.4562043877400369	1	1
1	17	2	0.6	0.1	1	0.4300672231134798	1	1	0.1871986999176443	0.5294072367455247	1	1
1	18	2	0.6	0.1	1	0.4697844493076679	1	1	0.1852817996405065	0.5133795850290673	2	1
1	19	2	0.6	0.1	1	0.5298972985146126	1	1	0.1468668999150395	0.4258228210836103	2	1
1	20	2	0.6	0.1	1	0.4199103924289069	1	1	0.2598518999293447	0.547617317279018	2	1
2	1	1	0.5	0.5	1	0.4681106063028032	1	2	0.8294556997716427	0.5880035545710236	1	0
2	2	1	0.5	0.5	1	0.5652151463609634	1	2	0.2603925000876188	0.5475985226878295	1	0
2	3	1	0.5	0.5	1	0.5483284664104949	1	2	0.731782500166446	0.5854812700292797	2	0
2	4	1	0.5	0.5	1	0.4592436154911727	1	1	0.2787354998290539	0.4558931456536835	2	1
2	5	1	0.5	0.5	1	0.5195498233818046	1	2	0.2789098001085222	0.5250734551101501	1	0
2	6	1	0.5	0.5	1	0.4284834834380881	1	1	1.093813699670136	0.4134687652217776	1	1
2	7	1	0.5	0.5	1	0.5007642160689668	1	1	0.214126399718225	0.4043750990412658	1	1
2	8	1	0.5	0.5	1	0.4577353155218731	1	2	0.2420342997647822	0.5649461277196905	2	0
2	9	1	0.5	0.5	1	0.5614092584513792	1	2	0.0004083001986145973	0.4925261193003355	1	0
2	10	1	0.5	0.5	1	0.5042064809748391	1	1	0.2325237998738885	0.5168037967810671	2	1
2	11	1	0.5	0.5	1	0.5737883988354674	1	1	0.01483279978856444	0.5881744811790823	2	1
2	12	1	0.5	0.5	1	0.4573340861310676	1	2	0.2519411998800933	0.4916777612475583	2	0
2	13	1	0.5	0.5	1	0.4271835043006795	1	2	1.516485699918121	0.4933827206097336	2	0
2	14	1	0.5	0.5	1	0.5590244046080954	0	n/a	n/a	n/a	n/a	n/a
2	15	1	0.5	0.5	1	0.5950415581154782	1	1	0.8572233002632856	0.4439132897637701	1	1
2	16	1	0.5	0.5	1	0.5083650643741335	1	2	0.1242313999682665	0.5171758722863889	1	0
2	17	1	0.5	0.5	1	0.5512758050766007	1	1	0.0004324000328779221	0.5139537298969408	2	1
2	18	1	0.5	0.5	1	0.5236184148664138	1	1	0.04477520007640123	0.5347392222794377	2	1
2	19	1	0.5	0.5	1	0.5838764166579193	1	2	0.380250200163573	0.4696616596685144	2	0
2	20	1	0.5	0.5	1	0.5810052899074941	1	1	0.06022220011800528	0.4804512907218909	2	1
3	1	2	0.1	0.6	2	0.4317081321012141	1	1	1.041190600022674	0.4119383689590629	2	0
3	2	2	0.1	0.6	2	0.4715691985888948	1	1	0.2769977999851108	0.4496788648973766	2	0
3	3	2	0.1	0.6	2	0.4587193257765717	1	1	0.4569757003337145	0.5857980663219188	2	0
3	4	2	0.1	0.6	2	0.5258785398798698	1	2	0.2957081999629736	0.4761936289186285	1	1
3	5	2	0.1	0.6	2	0.452743581074097	1	2	0.274031599983573	0.5898175915920403	2	1
3	6	2	0.1	0.6	2	0.4654509128640117	1	2	0.08324309997260571	0.4524563975514936	1	1
3	7	2	0.1	0.6	2	0.5015493638840556	1	2	0.1361165000125766	0.5292701211248089	2	1
3	8	2	0.1	0.6	2	0.5010713920875054	1	1	0.1747542000375688	0.4858513139368894	2	0
3	9	2	0.1	0.6	2	0.555364520901559	1	1	0.06712999986484647	0.5007090270660204	2	0
3	10	2	0.1	0.6	2	0.5006378280385615	1	2	0.1381589001975954	0.5376636522654915	2	1
3	11	2	0.1	0.6	2	0.5952032315205433	1	2	0.1703137001022696	0.5523294591739361	2	1
3	12	2	0.1	0.6	2	0.4924464158726962	1	1	0.2847009999677539	0.5612509284093969	2	0
3	13	2	0.1	0.6	2	0.430588673923605	1	2	0.1799566000699997	0.5405625168862396	1	1
3	14	2	0.1	0.6	2	0.4952834455693161	1	2	0.4097929997369647	0.5385361906030541	2	1
3	15	2	0.1	0.6	2	0.5117590662150244	1	2	0.1214975998736918	0.5887995948890599	1	1
3	16	2	0.1	0.6	2	0.5039051290883567	1	1	0.09991519991308451	0.5100465555332283	2	0
3	17	2	0.1	0.6	2	0.5201152102986478	1	1	0.3541032001376152	0.460689019597564	2	0
3	18	2	0.1	0.6	2	0.42327008063296	1	2	0.0004338002763688564	0.5284937500703542	1	1
3	19	2	0.1	0.6	2	0.5165558143111224	1	2	0.4196482999250293	0.5993585044511295	1	1
3	20	2	0.1	0.6	2	0.4160222304423341	1	1	0.3090269002132118	0.4133004039397041	2	0
4	1	2	0.6	0.1	1	0.4271144476307078	1	2	0.9916878002695739	0.5421963296071695	2	0
4	2	2	0.6	0.1	1	0.5204429385241154	1	1	0.4652207000181079	0.4816084090063214	2	1
4	3	2	0.6	0.1	1	0.4300731928564416	1	2	0.1555554000660777	0.4060041946491625	1	0
4	4	2	0.6	0.1	1	0.5553506477818482	1	1	0.3464326001703739	0.4472809602360702	1	1
4	5	2	0.6	0.1	1	0.4371441208571368	1	2	0.2351350001990795	0.4161592652887621	1	0
4	6	2	0.6	0.1	1	0.5197960755934096	1	2	0.2358816000632942	0.4006551177405469	2	0
4	7	2	0.6	0.1	1	0.5460847669931002	1	1	0.2593313003890216	0.4432303206486295	2	1
4	8	2	0.6	0.1	1	0.5269993678892237	1	1	0.2427723002620041	0.4554579120259155	1	1
4	9	2	0.6	0.1	1	0.4999354357876582	1	2	0.1890869000926614	0.480575930568173	2	0
4	10	2	0.6	0.1	1	0.4383544271268326	1	2	0.1890818001702428	0.4464765489717492	2	0
4	11	2	0.6	0.1	1	0.5045357738711317	1	2	0.08682490000501275	0.4412727821401571	2	0
4	12	2	0.6	0.1	1	0.4454083635213811	1	2	0.1369577003642917	0.5384144247598536	2	0
4	13	2	0.6	0.1	1	0.5582883675714204	1	2	0.1304092998616397	0.5195796675331394	2	0
4	14	2	0.6	0.1	1	0.4868942905596767	1	2	0.9029485997743905	0.5472722559866745	2	0
4	15	2	0.6	0.1	1	0.4517256879941998	1	2	0.4970156997442245	0.4118677670087524	2	0
4	16	2	0.6	0.1	1	0.4302453146930121	1	1	0.2407484999857843	0.4954657456163147	1	1
4	17	2	0.6	0.1	1	0.4419339238488854	1	1	0.2326497002504766	0.400202781292986	1	1
4	18	2	0.6	0.1	1	0.5871029453083415	1	1	0.01645320001989603	0.4575491768351941	2	1
4	19	2	0.6	0.1	1	0.4763548497908334	1	1	0.2133198003284633	0.5405188834893651	1	1
4	20	2	0.6	0.1	1	0.4736266274829428	1	2	0.2645769002847373	0.5672226300307631	2	0
5	1	1	0.5	0.5	1	0.5713861102830151	1	2	0.8709192997775972	0.5426334454507438	2	0
5	2	1	0.5	0.5	1	0.5199536463871817	1	1	0.2275407998822629	0.568921037293172	1	1
5	3	1	0.5	0.5	1	0.5882232710274478	1	2	0.06383899971842766	0.5618211682966314	2	0
5	4	1	0.5	0.5	1	0.57806473505009	1	1	0.02460280014201999	0.5719583170350914	2	1
5	5	1	0.5	0.5	1	0.572253481145377	1	1	0.0004008999094367027	0.5781136979139234	2	1
5	6	1	0.5	0.5	1	0.4090630998777753	1	2	0.2798597002401948	0.5881195954899667	2	0
5	7	1	0.5	0.5	1	0.5293052629700219	1	2	0.7006556000560522	0.426633150352183	1	0
5	8	1	0.5	0.5	1	0.4825948647530522	1	2	0.3241694997996092	0.5975353127239769	1	0
5	9	1	0.5	0.5	1	0.5694552298819386	1	1	0.2605110998265445	0.5227644252586717	2	1
5	10	1	0.5	0.5	1	0.5937504642164385	1	2	0.1133237998001277	0.4342255233111216	2	0
5	11	1	0.5	0.5	1	0.4855208825079351	1	1	0.5260439999401569	0.5624318685963956	1	1
5	12	1	0.5	0.5	1	0.5832107485300688	1	2	0.4063385003246367	0.4032682287647776	2	0
5	13	1	0.5	0.5	1	0.5182323704666948	1	2	0.2474265997298062	0.4873584071718881	2	0
5	14	1	0.5	0.5	1	0.568969941342012	1	2	0.3905744999647141	0.4359312303775154	2	0
5	15	1	0.5	0.5	1	0.5167921269688975	1	2	0.3098242003470659	0.4220106039841615	1	0
5	16	1	0.5	0.5	1	0.4518750185830093	1	2	0.3473060000687838	0.4213490895668622	1	0
5	17	1	0.5	0.5	1	0.542149743876343	1	2	0.1546994997188449	0.4694383628840717	2	0
5	18	1	0.5	0.5	1	0.5476443502375676	1	1	0.2975937998853624	0.5290842143581764	2	1
5	19	1	0.5	0.5	1	0.4039392352297245	1	2	0.4352907999418676	0.5453798633094817	2	0
5	20	1	0.5	0.5	1	0.4331510402651004	1	2	0.0004106000997126102	0.513043274944687	2	0
6	1	1	0.5	0.5	1	0.5953378987113629	1	1	0.6201255996711552	0.4884129119816773	1	1
6	2	1	0.5	0.5	1	0.5347528008018247	1	2	0.6197718996554613	0.4550652579772616	2	0
6	3	1	0.5	0.5	1	0.5502467657689877	1	2	0.6876497999764979	0.5599453768901111	2	0
6	4	1	0.5	0.5	1	0.4136067365476467	1	1	1.36826470028609	0.5779386317395807	1	1
6	5	1	0.5	0.5	1	0.4229393749473491	1	1	0.6527264001779258	0.5241681370743153	2	1
6	6	1	0.5	0.5	1	0.4127164693674794	1	2	0.9259833004325628	0.5181893881661149	2	0
6	7	1	0.5	0.5	1	0.5077222575250901	1	1	0.5880927001126111	0.5884358320669876	1	1
6	8	1	0.5	0.5	1	0.4850288912337397	1	1	0.4547778000123799	0.5989644885656205	2	1
6	9	1	0.5	0.5	1	0.4898083270857265	1	2	0.4976166998967528	0.4214623377063715	1	0
6	10	1	0.5	0.5	1	0.5421227499594219	1	2	0.3245946001261473	0.5125843134966468	1	0
6	11	1	0.5	0.5	1	0.588045865857596	1	1	0.6308889999054372	0.405379730050193	2	1
6	12	1	0.5	0.5	1	0.4659980379763463	1	2	0.7197042996995151	0.5884345917546453	2	0
6	13	1	0.5	0.5	1	0.4873268579530327	1	2	0.5919444998726249	0.4927178852866384	2	0
6	14	1	0.5	0.5	1	0.4766437474127307	1	1	0.3858694001100957	0.5033327334292733	2	1
6	15	1	0.5	0.5	1	0.4012749007941088	1	2	0.6273310002870858	0.4128903407724492	1	0
6	16	1	0.5	0.5	1	0.54077200724833	1	2	0.2964424998499453	0.5295062320078467	1	0
6	17	1	0.5	0.5	1	0.5899948719006836	1	1	0.56080980040133	0.5337318267421258	2	1
6	18	1	0.5	0.5	1	0.5224110339894903	1	2	0.2492049997672439	0.5710456616058645	2	0
6	19	1	0.5	0.5	1	0.5801498603673286	1	1	0.6790265999734402	0.5586940039602672	2	1
6	20	1	0.5	0.5	1	0.54111074966494	1	2	0.7808290999382734	0.404892800286526	2	0
7	1	2	0.6	0.1	1	0.4490813372152226	1	1	0.5602445998229086	0.4280757408004708	1	1
7	2	2	0.6	0.1	1	0.5548399980679023	1	2	0.4149060999043286	0.598419192655895	2	0
7	3	2	0.6	0.1	1	0.5519745976372472	1	1	0.8409283002838492	0.449793949969946	2	1
7	4	2	0.6	0.1	1	0.5507699426685306	1	2	0.3992066001519561	0.5226586910419918	2	0
7	5	2	0.6	0.1	1	0.5238766773262311	1	2	0.3213121998123825	0.5533712249082272	2	0
7	6	2	0.6	0.1	1	0.567484798837013	1	2	0.2850706004537642	0.4532301149364193	2	0
7	7	2	0.6	0.1	1	0.4698654224565619	1	1	0.3581426003947854	0.488415541276446	2	1
7	8	2	0.6	0.1	1	0.5141040108692541	1	1	0.282695900183171	0.4119263777618858	2	1
7	9	2	0.6	0.1	1	0.5821146472586255	1	2	0.08673499990254641	0.458514305896845	1	0
7	10	2	0.6	0.1	1	0.4650298033619003	1	1	0.2961470000445843	0.4224029798571104	1	1
7	11	2	0.6	0.1	1	0.5784707354697274	1	1	0.4660037001594901	0.4827551144021731	1	1
7	12	2	0.6	0.1	1	0.428325648553975	0	n/a	n/a	n/a	n/a	n/a
7	13	2	0.6	0.1	1	0.4862716672850306	1	2	1.031735599972308	0.5068417766148332	2	0
7	14	2	0.6	0.1	1	0.5940340452143337	1	1	0.4676511003635824	0.5500858325894433	1	1
7	15	2	0.6	0.1	1	0.401196479479272	1	2	0.2953262003138661	0.5015756031083602	2	0
7	16	2	0.6	0.1	1	0.5269917091692227	1	2	1.077871699817479	0.5344172175354936	2	0
7	17	2	0.6	0.1	1	0.4327794890646379	1	1	0.3605444002896547	0.5090983512716418	2	1
7	18	2	0.6	0.1	1	0.4433130285554291	1	2	0.2712565995752811	0.4714445598824774	2	0
7	19	2	0.6	0.1	1	0.5397913161412333	1	2	0.2967759002931416	0.4064348180088523	2	0
7	20	2	0.6	0.1	1	0.4219980424854339	1	2	0.2639313000254333	0.5332089245185478	2	0
8	1	1	0.5	0.5	1	0.5243195331088309	1	2	0.5578394997864962	0.4339011389672089	2	0
8	2	1	0.5	0.5	1	0.5255310288038157	1	1	0.6024373997934163	0.4658066543201353	2	1
8	3	1	0.5	0.5	1	0.449160932204081	1	1	0.9782787999138236	0.4940921589385056	1	1
8	4	1	0.5	0.5	1	0.562268934026396	1	1	0.9025086001493037	0.4014632786389979	1	1
8	5	1	0.5	0.5	1	0.5880221318624305	1	1	0.3371202000416815	0.5673964153259777	2	1
8	6	1	0.5	0.5	1	0.5757138235881589	1	1	1.780851499643177	0.5093485372252976	2	1
8	7	1	0.5	0.5	1	0.4453484276835065	1	2	0.7332160999067128	0.5466642681675002	2	0
8	8	1	0.5	0.5	1	0.5425307664817685	1	1	0.4227014002390206	0.5842868713867593	2	1
8	9	1	0.5	0.5	1	0.505373259837927	1	2	0.281825500074774	0.4036609452141533	1	0
8	10	1	0.5	0.5	1	0.4339341837808078	1	2	0.464408999774605	0.5949588628522671	1	0
8	11	1	0.5	0.5	1	0.5053618915389005	1	2	0.4799289000220597	0.5187029182046758	1	0
8	12	1	0.5	0.5	1	0.4735309049886113	1	1	0.7447621999308467	0.5271215698056364	1	1
8	13	1	0.5	0.5	1	0.4138809870425506	1	1	0.644951400347054	0.4067134510827996	2	1
8	14	1	0.5	0.5	1	0.5123487735714665	1	1	1.197223199997097	0.4018978634316314	2	1
8	15	1	0.5	0.5	1	0.4012854490733909	1	2	1.728282399941236	0.5648880247977015	2	0
8	16	1	0.5	0.5	1	0.4400119915376126	1	1	0.6625255001708865	0.5182378319748431	2	1
8	17	1	0.5	0.5	1	0.4040998315866781	1	2	1.32020409964025	0.5381480645456544	1	0
8	18	1	0.5	0.5	1	0.5168028294212277	1	2	1.126753599848598	0.572384123381682	2	0
8	19	1	0.5	0.5	1	0.4574409556951657	0	n/a	n/a	n/a	n/a	n/a
8	20	1	0.5	0.5	1	0.4557833223883434	1	1	0.5938777001574636	0.5171523138122323	2	1
9	1	2	0.1	0.6	2	0.5225102747924608	0	n/a	n/a	n/a	n/a	n/a
9	2	2	0.1	0.6	2	0.5696676426153542	1	1	0.305595800280571	0.5112889559296523	2	0
9	3	2	0.1	0.6	2	0.5444150890017456	1	1	0.3045820998959243	0.4646114477675932	2	0
9	4	2	0.1	0.6	2	0.5981227843768997	1	2	0.3376579997129738	0.4287438225346085	1	1
9	5	2	0.1	0.6	2	0.4076226069824992	1	2	0.7450214996933937	0.4002829453480004	1	1
9	6	2	0.1	0.6	2	0.5583465953225075	1	2	0.3792452001944184	0.5700808303433205	1	1
9	7	2	0.1	0.6	2	0.4004921035338552	1	2	0.2979401997290552	0.4254297411273456	2	1
9	8	2	0.1	0.6	2	0.458619155244261	1	2	0.685461699962616	0.5021921654310941	1	1
9	9	2	0.1	0.6	2	0.5516476983479471	1	1	0.3680666000582278	0.462207928410834	2	0
9	10	2	0.1	0.6	2	0.4270166479135641	1	2	0.3164662001654506	0.4093340686290656	1	1
9	11	2	0.1	0.6	2	0.5963861367528877	1	1	1.346761200111359	0.5892087082202551	1	0
9	12	2	0.1	0.6	2	0.4486623297003574	1	1	0.3718448001891375	0.5819828715734391	2	0
9	13	2	0.1	0.6	2	0.5753449565557799	1	2	0.4301383998245001	0.4412103721479	1	1
9	14	2	0.1	0.6	2	0.5541390487547251	1	2	0.8284685001708567	0.4537327131882086	2	1
9	15	2	0.1	0.6	2	0.4001918025922333	1	1	1.892753100022674	0.5832321179347918	2	0
9	16	2	0.1	0.6	2	0.4486614464380523	1	1	0.612153799738735	0.5346887572498611	2	0
9	17	2	0.1	0.6	2	0.4778164835877863	1	2	0.3048537997528911	0.4757448998898886	2	1
9	18	2	0.1	0.6	2	0.5801362278868694	1	1	0.3674204000271857	0.4906764746888996	2	0
9	19	2	0.1	0.6	2	0.5905198828239665	1	2	0.3911743997596204	0.4324324265839877	1	1
9	20	2	0.1	0.6	2	0.5644228273637254	1	2	0.3341381000354886	0.4127619425353678	2	1
10	1	2	0.1	0.6	2	0.5969189182898498	1	2	0.6898112003691494	0.5807129472258585	2	1
10	2	2	0.1	0.6	2	0.4487283988024053	1	2	1.001230099704117	0.528723857458109	1	1
10	3	2	0.1	0.6	2	0.5802568957434757	1	2	0.607076299842447	0.490884363655186	1	1
10	4	2	0.1	0.6	2	0.527724615632045	0	n/a	n/a	n/a	n/a	n/a
10	5	2	0.1	0.6	2	0.5864613407484272	1	2	1.276005099993199	0.5592879913485274	2	1
10	6	2	0.1	0.6	2	0.4751716219214649	1	1	0.3461875002831221	0.5834409317217352	2	0
10	7	2	0.1	0.6	2	0.558468216348101	1	2	0.5229584998451173	0.4785579367193484	1	1
10	8	2	0.1	0.6	2	0.5845806032967789	1	2	0.325964099727571	0.5954821622391417	1	1
10	9	2	0.1	0.6	2	0.5687821669279036	1	2	1.117596100084484	0.5811380524563861	2	1
10	10	2	0.1	0.6	2	0.4017888133867555	1	1	0.8302973997779191	0.5661391801276782	2	0
10	11	2	0.1	0.6	2	0.4341933704009118	1	2	1.631295500323176	0.4609364443909769	1	1
10	12	2	0.1	0.6	2	0.5007844510777636	0	n/a	n/a	n/a	n/a	n/a
10	13	2	0.1	0.6	2	0.4413757962101134	1	2	0.5387857998721302	0.588099782745734	2	1
10	14	2	0.1	0.6	2	0.566187674870969	1	1	0.3398378998972476	0.5805492919612431	2	0
10	15	2	0.1	0.6	2	0.590141419009663	1	2	0.3068110998719931	0.4125544352733597	2	1
10	16	2	0.1	0.6	2	0.4094669988331934	1	1	0.3070044000633061	0.4700435031263426	2	0
10	17	2	0.1	0.6	2	0.5713534436252706	1	2	0.3650307999923825	0.5827014421785991	1	1
10	18	2	0.1	0.6	2	0.5931405078512544	1	1	0.8853166000917554	0.4488710097606805	2	0
10	19	2	0.1	0.6	2	0.4935164305108253	1	2	0.7464165999554098	0.5028684764266136	1	1
10	20	2	0.1	0.6	2	0.4499109179590518	0	n/a	n/a	n/a	n/a	n/a
11	1	1	0.5	0.5	1	0.5686892675436179	1	2	0.6901527000591159	0.4170410351781326	2	0
11	2	1	0.5	0.5	1	0.4216765893460449	1	2	0.6446851999498904	0.451351453889441	2	0
11	3	1	0.5	0.5	1	0.5032257720788662	0	n/a	n/a	n/a	n/a	n/a
11	4	1	0.5	0.5	1	0.5892793525040905	1	1	0.3373490003868937	0.5501324249568127	2	1
11	5	1	0.5	0.5	1	0.5709795251444699	1	2	0.3246325999498367	0.5612191094231597	2	0
11	6	1	0.5	0.5	1	0.4349137390443292	1	1	0.6758385999128222	0.4347695068514204	1	1
11	7	1	0.5	0.5	1	0.5281422088389652	1	1	0.4190318998880684	0.5934448256532224	2	1
11	8	1	0.5	0.5	1	0.5915404504110342	1	2	0.3411469999700785	0.5347592025889789	1	0
11	9	1	0.5	0.5	1	0.5133762166553227	1	2	0.7456207000650465	0.5743576681705707	1	0
11	10	1	0.5	0.5	1	0.4558187767840557	1	2	0.45468769967556	0.5126930098661566	1	0
11	11	1	0.5	0.5	1	0.4920538949287606	1	2	0.3335520001128316	0.5435654034496653	2	0
11	12	1	0.5	0.5	1	0.5326673781573213	1	2	1.246218600310385	0.4810849260561312	2	0
11	13	1	0.5	0.5	1	0.486448300865762	1	2	1.529521099757403	0.4579920452370245	1	0
11	14	1	0.5	0.5	1	0.4085292910607203	1	1	0.5696166004054248	0.4460258815567213	2	1
11	15	1	0.5	0.5	1	0.5941899567015143	1	2	1.192037700209767	0.4788289633055945	1	0
11	16	1	0.5	0.5	1	0.5603426287175921	0	n/a	n/a	n/a	n/a	n/a
11	17	1	0.5	0.5	1	0.4122160798945701	1	1	0.7785141002386808	0.570837096780332	1	1
11	18	1	0.5	0.5	1	0.5183844467135256	1	2	0.775518300011754	0.4132344743610774	2	0
11	19	1	0.5	0.5	1	0.4676902077735353	1	1	0.6009848001413047	0.5126532139336285	2	1
11	20	1	0.5	0.5	1	0.5998520234293021	1	2	1.900686500128359	0.4091422376258352	1	0
12	1	1	0.5	0.5	1	0.4764000844338219	1	2	0.9416399002075195	0.5849272870817797	1	0
12	2	1	0.5	0.5	1	0.4617949214275425	1	2	0.160518900025636	0.5610330619688787	2	0
12	3	1	0.5	0.5	1	0.4879306226691001	1	2	1.640568600036204	0.562487833569418	2	0
12	4	1	0.5	0.5	1	0.4686811028003707	1	1	0.9703552001155913	0.4644257240674185	1	1
12	5	1	0.5	0.5	1	0.4923348564548335	1	2	0.8366940999403596	0.4583790356634363	2	0
12	6	1	0.5	0.5	1	0.4354149239727894	1	1	0.1366488002240658	0.429412190362556	1	1
12	7	1	0.5	0.5	1	0.5050171875369505	1	2	1.029974299948663	0.4041662709053922	2	0
12	8	1	0.5	0.5	1	0.5615633387503396	0	n/a	n/a	n/a	n/a	n/a
12	9	1	0.5	0.5	1	0.427074206141477	1	1	0.3047434999607503	0.5229807058557598	1	1
12	10	1	0.5	0.5	1	0.4522199435338183	1	2	0.4107661000452936	0.4721479119651824	1	0
12	11	1	0.5	0.5	1	0.5691744844378509	1	1	0.8438538000918925	0.4237575909423008	2	1
12	12	1	0.5	0.5	1	0.4166798064210449	0	n/a	n/a	n/a	n/a	n/a
12	13	1	0.5	0.5	1	0.4459104013734685	1	2	0.3730120998807251	0.4831773801821564	2	0
12	14	1	0.5	0.5	1	0.4755027800823809	1	2	0.3323145001195371	0.4741584609054538	1	0
12	15	1	0.5	0.5	1	0.4353691361992784	1	1	0.5949017000384629	0.53972038708189	1	1
12	16	1	0.5	0.5	1	0.5000969220770899	1	1	1.424217900261283	0.5037505735631662	2	1
12	17	1	0.5	0.5	1	0.4883552399782534	1	1	0.5266985003836453	0.4833905323265734	2	1
12	18	1	0.5	0.5	1	0.5969943468813587	0	n/a	n/a	n/a	n/a	n/a
12	19	1	0.5	0.5	1	0.5970138839463393	1	2	0.3774100001901388	0.5083849960536673	2	0
12	20	1	0.5	0.5	1	0.5735373926905203	1	2	0.4462529998272657	0.5026588507301161	2	0
13	1	2	0.6	0.1	1	0.4045260251116444	1	2	0.6693917000666261	0.5988697783367836	2	0
13	2	2	0.6	0.1	1	0.5800289981626123	1	1	0.5080697000958025	0.4366181907473379	1	1
13	3	2	0.6	0.1	1	0.5305637061408379	1	2	1.763695800211281	0.4031920287945869	2	0
13	4	2	0.6	0.1	1	0.4232613936346575	1	1	0.6105469996109605	0.501579552188632	1	1
13	5	2	0.6	0.1	1	0.4408925060480192	1	1	0.6656808000989258	0.4593571200445832	2	1
13	6	2	0.6	0.1	1	0.5856162410490666	0	n/a	n/a	n/a	n/a	n/a
13	7	2	0.6	0.1	1	0.4695170100352533	0	n/a	n/a	n/a	n/a	n/a
13	8	2	0.6	0.1	1	0.4213681446158201	1	1	0.5379524999298155	0.5310089596277207	1	1
13	9	2	0.6	0.1	1	0.5550612955296497	1	1	0.5079523995518684	0.4540109940671068	1	1
13	10	2	0.6	0.1	1	0.4385441949341693	1	1	0.9033367997035384	0.5733034522516502	2	1
13	11	2	0.6	0.1	1	0.5024066993160572	1	2	0.4097420000471175	0.4220498743991006	2	0
13	12	2	0.6	0.1	1	0.4748296089051104	1	1	0.6431452999822795	0.4446665415459504	1	1
13	13	2	0.6	0.1	1	0.422029000793837	1	1	1.295086900237948	0.4284670164392932	2	1
13	14	2	0.6	0.1	1	0.4531067149744412	1	2	0.4467902998439968	0.4097501758416641	2	0
13	15	2	0.6	0.1	1	0.5036913453195772	0	n/a	n/a	n/a	n/a	n/a
13	16	2	0.6	0.1	1	0.5581644793104545	0	n/a	n/a	n/a	n/a	n/a
13	17	2	0.6	0.1	1	0.5563290827277905	1	2	0.6915049999952316	0.4432653209282681	2	0
13	18	2	0.6	0.1	1	0.5493561051596675	1	2	0.4445511996746063	0.4603068152424071	1	0
13	19	2	0.6	0.1	1	0.4479928484517268	1	1	0.3798271999694407	0.4756375765486083	2	1
13	20	2	0.6	0.1	1	0.5136248133010366	1	2	0.5586744998581707	0.5465059194382806	2	0
14	1	1	0.5	0.5	1	0.5847204946684421	0	n/a	n/a	n/a	n/a	n/a
14	2	1	0.5	0.5	1	0.598405284577937	1	2	0.3854726999998093	0.4560111471100992	2	0
14	3	1	0.5	0.5	1	0.5251676504138523	1	2	0.2457357998937368	0.5447112182945808	2	0
14	4	1	0.5	0.5	1	0.4470992995252804	1	2	0.2517769001424313	0.5459686126178435	1	0
14	5	1	0.5	0.5	1	0.4273586437852159	1	2	0.4344585002399981	0.482573206519306	2	0
14	6	1	0.5	0.5	1	0.5636949133162934	1	2	0.02107109967619181	0.5873965676397035	1	0
14	7	1	0.5	0.5	1	0.4117794620496131	1	2	0.3590251002460718	0.4934965632975552	2	0
14	8	1	0.5	0.5	1	0.5398309709899098	0	n/a	n/a	n/a	n/a	n/a
14	9	1	0.5	0.5	1	0.4195183353754661	1	1	1.390375200193375	0.4074222733820728	1	1
14	10	1	0.5	0.5	1	0.4610252375835838	0	n/a	n/a	n/a	n/a	n/a
14	11	1	0.5	0.5	1	0.5124553062525476	1	1	0.0004515997134149075	0.5193788010712017	2	1
14	12	1	0.5	0.5	1	0.436450428038718	1	2	0.3596517997793853	0.584927129540771	1	0
14	13	1	0.5	0.5	1	0.5846777998891813	1	1	0.2988784997723997	0.5153059648890034	1	1
14	14	1	0.5	0.5	1	0.5217730876266519	1	2	0.3852071999572217	0.4865622517413165	2	0
14	15	1	0.5	0.5	1	0.4123191013735347	1	1	0.4006618000566959	0.5729977603706926	2	1
14	16	1	0.5	0.5	1	0.5579262622599221	1	1	0.7786122001707554	0.4831632351612583	2	1
14	17	1	0.5	0.5	1	0.591305212004068	1	1	0.4166430002078414	0.4805984667463515	2	1
14	18	1	0.5	0.5	1	0.4176617985841263	1	2	0.2883418002165854	0.543259978036026	1	0
14	19	1	0.5	0.5	1	0.4979918366301586	1	1	0.2187440004199743	0.4490534584149084	2	1
14	20	1	0.5	0.5	1	0.4461269166374418	1	2	0.4988990998826921	0.5142290819236215	1	0
15	1	2	0.6	0.1	1	0.4797157161076456	1	1	0.3736374997533858	0.412348620801937	2	1
15	2	2	0.6	0.1	1	0.4340893797269525	1	2	0.3341739000752568	0.4539440699706325	2	0
15	3	2	0.6	0.1	1	0.595155394002144	1	2	0.1094124997034669	0.408317838132486	2	0
15	4	2	0.6	0.1	1	0.529743782459011	1	2	0.3863892001099885	0.5044163641844156	1	0
15	5	2	0.6	0.1	1	0.4493562830868524	1	2	0.4051966001279652	0.5033685574417429	2	0
15	6	2	0.6	0.1	1	0.5594273251238002	1	2	0.5162506997585297	0.5842709203332224	2	0
15	7	2	0.6	0.1	1	0.5679354196875166	1	2	0.08666059980168939	0.4991175559885817	1	0
15	8	2	0.6	0.1	1	0.4563352452138327	1	2	0.01630959985777736	0.4070062343619021	2	0
15	9	2	0.6	0.1	1	0.4728785419996405	1	2	0.3892263001762331	0.5723919454349675	2	0
15	10	2	0.6	0.1	1	0.5201697671533916	1	2	0.9756609997712076	0.4147429507643406	2	0
15	11	2	0.6	0.1	1	0.4760263423431002	1	2	0.352420000359416	0.5936615256348676	2	0
15	12	2	0.6	0.1	1	0.5412556768515266	1	2	0.4077905998565257	0.540733489292048	2	0
15	13	2	0.6	0.1	1	0.5218477509820836	1	1	1.29955040011555	0.5231920966776213	2	1
15	14	2	0.6	0.1	1	0.495008669043954	1	2	0.177456000354141	0.453289602576982	2	0
15	15	2	0.6	0.1	1	0.5840787516349606	1	2	0.0811960999853909	0.5735561126349894	2	0
15	16	2	0.6	0.1	1	0.5239443415856359	1	1	0.06787680042907596	0.4827560940810793	2	1
15	17	2	0.6	0.1	1	0.5716116621188978	1	2	0.1397544001229107	0.5413807637582865	2	0
15	18	2	0.6	0.1	1	0.4058902664722981	1	1	0.2706633000634611	0.5737488488450146	2	1
15	19	2	0.6	0.1	1	0.470388655887531	1	2	0.2635123999789357	0.4476431588892793	2	0
15	20	2	0.6	0.1	1	0.4382041634672642	1	2	0.0004103998653590679	0.551685198232259	2	0
16	1	1	0.5	0.5	1	0.5015432322070639	1	2	0.9318025000393391	0.5680967920878744	2	0
16	2	1	0.5	0.5	1	0.5820809539373017	1	1	0.3885996998287737	0.5711924488846001	2	1
16	3	1	0.5	0.5	1	0.5005630534743339	1	1	0.4142797002568841	0.4844034043079294	2	1
16	4	1	0.5	0.5	1	0.4876009433218431	1	1	0.2900247001089156	0.5065985024009518	2	1
16	5	1	0.5	0.5	1	0.4484571206145069	1	2	0.1636957000009716	0.5053335599898831	1	0
16	6	1	0.5	0.5	1	0.4925952398015294	1	1	0.3335404000245035	0.4424058126606772	1	1
16	7	1	0.5	0.5	1	0.4760277528050477	1	1	0.3246304001659155	0.554198895423916	1	1
16	8	1	0.5	0.5	1	0.5510182566425695	1	2	0.2505471003241837	0.4187461902059779	2	0
16	9	1	0.5	0.5	1	0.441546914739877	1	2	0.1081237997859716	0.4294224015710428	1	0
16	10	1	0.5	0.5	1	0.5527012442224121	1	1	0.3630726998671889	0.4885538687653537	2	1
16	11	1	0.5	0.5	1	0.5027954694367849	1	2	1.085024499800056	0.4961291069798897	2	0
16	12	1	0.5	0.5	1	0.4867573406328763	1	1	0.8077138997614384	0.5886315755490451	2	1
16	13	1	0.5	0.5	1	0.4708638548722045	1	1	0.1746722999960184	0.5118272846447367	2	1
16	14	1	0.5	0.5	1	0.4563906398993311	1	2	1.243140699807554	0.4822143802245255	1	0
16	15	1	0.5	0.5	1	0.5041484559087449	1	1	0.0141894998960197	0.5824737544680879	2	1
16	16	1	0.5	0.5	1	0.5829213488769831	1	2	0.1609402997419238	0.4136048843992203	1	0
16	17	1	0.5	0.5	1	0.4255550198081287	1	2	0.4597125998698175	0.4708445116439365	2	0
16	18	1	0.5	0.5	1	0.4060494026519602	1	1	0.2695101997815073	0.4430940494224111	2	1
16	19	1	0.5	0.5	1	0.5344022824317791	1	2	0.3294699997641146	0.5126476889840975	1	0
16	20	1	0.5	0.5	1	0.5362790880949817	1	2	1.041714400053024	0.5968954510976532	2	0
17	1	2	0.1	0.6	2	0.4400050972600376	1	2	0.5057693999260664	0.4291399001666808	2	1
17	2	2	0.1	0.6	2	0.4091945989525189	1	1	0.3011460998095572	0.4327287172045384	2	0
17	3	2	0.1	0.6	2	0.574229295889416	1	2	0.2755841999314725	0.4679818599347554	1	1
17	4	2	0.1	0.6	2	0.5732964388629536	1	2	0.1811219998635352	0.5545139847406633	2	1
17	5	2	0.1	0.6	2	0.4791990047980681	1	1	0.0004251999780535698	0.4713482090848836	2	0
17	6	2	0.1	0.6	2	0.4124991073906625	1	2	0.3555478998459876	0.4477675712836831	1	1
17	7	2	0.1	0.6	2	0.4373428080149726	1	1	0.3611556002870202	0.5541845544730315	2	0
17	8	2	0.1	0.6	2	0.4501356422540073	1	1	0.341750199906528	0.439947884364605	2	0
17	9	2	0.1	0.6	2	0.5312265211433301	1	2	0.3019349002279341	0.5990446642112556	2	1
17	10	2	0.1	0.6	2	0.4443064169237306	1	1	0.0004043001681566238	0.4442127586475002	2	0
17	11	2	0.1	0.6	2	0.4049752710159398	1	2	0.2217664998024702	0.4554606774878255	2	1
17	12	2	0.1	0.6	2	0.5478745416737324	1	2	0.5110430000349879	0.4333147236278401	1	1
17	13	2	0.1	0.6	2	0.5568468529307863	1	2	0.3224305999465287	0.5594142445374891	2	1
17	14	2	0.1	0.6	2	0.4420625291375147	1	1	0.2750483001582325	0.5695591236082844	2	0
17	15	2	0.1	0.6	2	0.5260347477529412	1	1	0.4432776998728514	0.5187941034708213	2	0
17	16	2	0.1	0.6	2	0.5938463116376171	1	2	0.6021362999454141	0.5654601558784385	1	1
17	17	2	0.1	0.6	2	0.4115378254692961	0	n/a	n/a	n/a	n/a	n/a
17	18	2	0.1	0.6	2	0.5128566997881666	1	2	1.187972399871796	0.4926078048337683	2	1
17	19	2	0.1	0.6	2	0.591325026513831	1	1	0.3349211998283863	0.4628711034007894	2	0
17	20	2	0.1	0.6	2	0.4714460607319156	1	2	0.3525517000816762	0.5226393436263641	1	1
18	1	2	0.6	0.1	1	0.4740355998730464	1	2	0.3611188000068069	0.412867896735724	2	0
18	2	2	0.6	0.1	1	0.4389871461747685	1	1	0.2364949998445809	0.4812414448470494	1	1
18	3	2	0.6	0.1	1	0.5400586452286014	1	1	0.1977233001962304	0.4148613273060436	1	1
18	4	2	0.6	0.1	1	0.559655311854465	1	2	0.4959896998479962	0.4359552500298484	2	0
18	5	2	0.6	0.1	1	0.5052707956975472	1	2	0.0004015001468360424	0.460568921175722	2	0
18	6	2	0.6	0.1	1	0.4465884017677287	1	1	0.3607183001004159	0.4812485360510641	1	1
18	7	2	0.6	0.1	1	0.4836888973469041	1	1	0.5511578996665776	0.5942655392720112	1	1
18	8	2	0.6	0.1	1	0.4808256662429324	0	n/a	n/a	n/a	n/a	n/a
18	9	2	0.6	0.1	1	0.425907229079787	1	1	0.4741350002586842	0.4085290099485236	2	1
18	10	2	0.6	0.1	1	0.4326290021027344	1	2	0.6389713999815285	0.4677939127032916	1	0
18	11	2	0.6	0.1	1	0.5822942372547701	1	1	1.178528400138021	0.5627018034717525	1	1
18	12	2	0.6	0.1	1	0.5111686057592817	0	n/a	n/a	n/a	n/a	n/a
18	13	2	0.6	0.1	1	0.5603934147531733	1	2	0.3503902000375092	0.4362519295622261	2	0
18	14	2	0.6	0.1	1	0.5274211150637785	1	1	1.367542000021785	0.4123259840579511	1	1
18	15	2	0.6	0.1	1	0.5490533902418092	1	1	0.0009538000449538231	0.5653349264306674	2	1
18	16	2	0.6	0.1	1	0.4370467323938531	1	2	0.0004290998913347721	0.4863478056423272	2	0
18	17	2	0.6	0.1	1	0.4207546693480365	1	2	1.536002600099891	0.4960587466058937	2	0
18	18	2	0.6	0.1	1	0.5857697095906024	1	2	0.6665275995619595	0.4634519220006377	1	0
18	19	2	0.6	0.1	1	0.4079131918701093	1	2	1.028339499607682	0.4106234520147987	2	0
18	20	2	0.6	0.1	1	0.5922172892032087	1	2	0.506822899915278	0.4025587658488055	2	0
19	1	1	0.5	0.5	1	0.5030956625564106	0	n/a	n/a	n/a	n/a	n/a
19	2	1	0.5	0.5	1	0.5097175107678737	1	2	0.4194959998130798	0.4536376999771227	2	0
19	3	1	0.5	0.5	1	0.5466672098794902	1	1	0.3390164999291301	0.4463165793266044	1	1
19	4	1	0.5	0.5	1	0.4000624560778969	1	1	0.4089945000596344	0.5401774860801357	2	1
19	5	1	0.5	0.5	1	0.4912089230169738	1	2	0.368563000112772	0.5444232859228456	2	0
19	6	1	0.5	0.5	1	0.4388885228148758	0	n/a	n/a	n/a	n/a	n/a
19	7	1	0.5	0.5	1	0.541159023402498	1	2	0.4226739001460373	0.5189639518587303	1	0
19	8	1	0.5	0.5	1	0.4765477495378359	1	2	0.687383399810642	0.4871848470331658	2	0
19	9	1	0.5	0.5	1	0.5439124786891931	1	1	0.3790211998857558	0.4320526759973186	1	1
19	10	1	0.5	0.5	1	0.4433385803055608	1	1	0.1799010997638106	0.4093371490436672	2	1
19	11	1	0.5	0.5	1	0.5138581753592073	1	1	0.360064699780196	0.406424089422166	2	1
19	12	1	0.5	0.5	1	0.5820779704806561	1	1	0.1698799999430776	0.5215312112810446	2	1
19	13	1	0.5	0.5	1	0.5435381890037948	1	2	1.38725610030815	0.5123897662896211	2	0
19	14	1	0.5	0.5	1	0.4423633480145763	1	1	0.5189434001222253	0.5817245647321982	1	1
19	15	1	0.5	0.5	1	0.4722633661075364	1	1	0.3586364001967013	0.563169784256068	2	1
19	16	1	0.5	0.5	1	0.4254643404360592	1	2	1.443674200214446	0.4005605676915429	2	0
19	17	1	0.5	0.5	1	0.424562691494592	0	n/a	n/a	n/a	n/a	n/a
19	18	1	0.5	0.5	1	0.4387852221958721	1	1	0.6008913000114262	0.5102657499941163	2	1
19	19	1	0.5	0.5	1	0.4504110251000085	1	2	0.387394200079143	0.4601715165216981	2	0
19	20	1	0.5	0.5	1	0.5004547092907045	1	1	1.912264499813318	0.5092337118475732	2	1
20	1	1	0.5	0.5	1	0.5590663810640217	0	n/a	n/a	n/a	n/a	n/a
20	2	1	0.5	0.5	1	0.456956792457719	1	1	0.5430049002170563	0.4615957351458012	2	1
20	3	1	0.5	0.5	1	0.4136872386207525	0	n/a	n/a	n/a	n/a	n/a
20	4	1	0.5	0.5	1	0.4164007983420412	0	n/a	n/a	n/a	n/a	n/a
20	5	1	0.5	0.5	1	0.5046669172960458	1	2	0.368083500303328	0.5805317774616181	2	0
20	6	1	0.5	0.5	1	0.4050943593487297	1	2	0.3468638998456299	0.4520140763194063	2	0
20	7	1	0.5	0.5	1	0.5545544943885687	1	1	0.1513896002434194	0.4062580457957934	1	1
20	8	1	0.5	0.5	1	0.446105847187401	1	1	0.2638153000734746	0.5214557755707655	1	1
20	9	1	0.5	0.5	1	0.4543048497504605	1	1	0.5218799998983741	0.4945060396088997	1	1
20	10	1	0.5	0.5	1	0.4607454068301652	1	1	0.2374472999945283	0.597242584834892	2	1
20	11	1	0.5	0.5	1	0.5962776980042971	1	2	0.2154974997974932	0.5291727661730843	2	0
20	12	1	0.5	0.5	1	0.4802001514275604	1	1	0.4014739999547601	0.5718053362148694	2	1
20	13	1	0.5	0.5	1	0.5221138702434758	1	1	0.6239649001508951	0.5930221716997832	1	1
20	14	1	0.5	0.5	1	0.4398066174550851	1	2	0.02230489999055862	0.5143629273308705	2	0
20	15	1	0.5	0.5	1	0.5786512838684823	1	2	0.9781545996665955	0.5121598482455219	2	0
20	16	1	0.5	0.5	1	0.5267580448797488	1	1	0.4793882998637855	0.5354352049334925	1	1
20	17	1	0.5	0.5	1	0.5027138248965528	1	1	0.5672133001498878	0.5216183459417797	1	1
20	18	1	0.5	0.5	1	0.5014388595111804	1	1	0.5634331000037491	0.4849311429002023	1	1
20	19	1	0.5	0.5	1	0.5143984189646145	1	1	0.202855400275439	0.5399713212877515	2	1
20	20	1	0.5	0.5	1	0.4345804712678153	1	2	1.860516299959272	0.4844812709835677	1	0
